time [s] Activity [arb units]
0.0000 0.0932
0.5000 0.1106
1.0000 0.1277
1.5000 0.1444
2.0000 0.1608
2.5000 0.1769
3.0000 0.1926
3.5000 0.2081
4.0000 0.2232
4.5000 0.2381
5.0000 0.2527
5.5000 0.2669
6.0000 0.2810
6.5000 0.2947
7.0000 0.3081
7.5000 0.3213
8.0000 0.3343
8.5000 0.3470
9.0000 0.3594
9.5000 0.3716
10.0000 0.3835
10.5000 0.3952
11.0000 0.4067
11.5000 0.4180
12.0000 0.4290
12.5000 0.4398
13.0000 0.4504
13.5000 0.4608
14.0000 0.4710
14.5000 0.4810
15.0000 0.4908
15.5000 0.5004
16.0000 0.5098
16.5000 0.5190
17.0000 0.5280
17.5000 0.5369
18.0000 0.5455
18.5000 0.5540
19.0000 0.5623
19.5000 0.5705
20.0000 0.5785
20.5000 0.5863
21.0000 0.5940
21.5000 0.6015
22.0000 0.6089
22.5000 0.6161
23.0000 0.6232
23.5000 0.6301
24.0000 0.6369
24.5000 0.6436
25.0000 0.6501
25.5000 0.6565
26.0000 0.6627
26.5000 0.6689
27.0000 0.6749
27.5000 0.6807
28.0000 0.6865
28.5000 0.6921
29.0000 0.6977
29.5000 3.0606
30.0000 2.4251
30.5000 2.0475
31.0000 1.8310
31.5000 1.6817
32.0000 1.5696
32.5000 1.4836
33.0000 1.4173
33.5000 1.3663
34.0000 1.3271
34.5000 1.2970
35.0000 1.2741
35.5000 1.2568
36.0000 1.2438
36.5000 1.2341
37.0000 1.2270
37.5000 1.2218
38.0000 1.2182
38.5000 1.2158
39.0000 1.2143
39.5000 1.2135
40.0000 1.2132
40.5000 1.2133
41.0000 1.2137
41.5000 1.2144
42.0000 1.2151
42.5000 1.2160
43.0000 1.2169
43.5000 1.2179
44.0000 1.2189
44.5000 1.2200
45.0000 1.2210
45.5000 1.2220
46.0000 1.2229
46.5000 1.2239
47.0000 1.2248
47.5000 1.2256
48.0000 1.2264
48.5000 1.2272
49.0000 1.2280
49.5000 1.2287
50.0000 1.2293
50.5000 1.2300
51.0000 1.2305
51.5000 1.2311
52.0000 1.2316
52.5000 1.2320
53.0000 1.2324
53.5000 1.2328
54.0000 1.2331
54.5000 1.2334
55.0000 1.2337
55.5000 1.2339
56.0000 1.2341
56.5000 1.2343
57.0000 1.2344
57.5000 1.2345
58.0000 1.2345
58.5000 1.2346
59.0000 1.2346
59.5000 1.2345
60.0000 1.2345
60.5000 1.2344
61.0000 1.2342
61.5000 1.2341
62.0000 1.2339
62.5000 1.2337
63.0000 1.2335
63.5000 1.2332
64.0000 1.2329
64.5000 1.2326
65.0000 1.2323
65.5000 1.2319
66.0000 1.2316
66.5000 1.2312
67.0000 1.2307
67.5000 1.2303
68.0000 1.2298
68.5000 1.2293
69.0000 1.2288
69.5000 1.2283
70.0000 1.2278
70.5000 1.2272
71.0000 1.2266
71.5000 1.2260
72.0000 1.2254
72.5000 1.2248
73.0000 1.2242
73.5000 1.2235
74.0000 1.2228
74.5000 1.2221
75.0000 1.2214
75.5000 1.2207
76.0000 1.2200
76.5000 1.2192
77.0000 1.2184
77.5000 1.2177
78.0000 1.2169
78.5000 1.2161
79.0000 1.2152
79.5000 1.2144
80.0000 1.2136
80.5000 1.2127
81.0000 1.2119
81.5000 1.2110
82.0000 1.2101
82.5000 1.2092
83.0000 1.2083
83.5000 1.2074
84.0000 1.2065
84.5000 1.2056
85.0000 1.2046
85.5000 1.2037
86.0000 1.2027
86.5000 1.2017
87.0000 1.2008
87.5000 1.1998
88.0000 1.1988
88.5000 1.1978
89.0000 1.1968
89.5000 1.1958
90.0000 1.1948
90.5000 1.1938
91.0000 1.1927
91.5000 1.1917
92.0000 1.1907
92.5000 1.1896
93.0000 1.1886
93.5000 1.1875
94.0000 1.1864
94.5000 1.1854
95.0000 1.1843
95.5000 1.1832
96.0000 1.1821
96.5000 1.1811
97.0000 1.1800
97.5000 1.1789
98.0000 1.1778
98.5000 1.1767
99.0000 1.1756
99.5000 1.1744
100.0000 1.1733
100.5000 1.1722
101.0000 1.1711
101.5000 1.1700
102.0000 1.1688
102.5000 1.1677
103.0000 1.1666
103.5000 1.1655
104.0000 1.1643
104.5000 1.1632
105.0000 1.1620
105.5000 1.1609
106.0000 1.1597
106.5000 1.1586
107.0000 1.1575
107.5000 1.1563
108.0000 1.1552
108.5000 1.1540
109.0000 1.1528
109.5000 1.1517
110.0000 1.1505
110.5000 1.1494
111.0000 1.1482
111.5000 1.1470
112.0000 1.1459
112.5000 1.1447
113.0000 1.1436
113.5000 1.1424
114.0000 1.1412
114.5000 1.1401
115.0000 1.1389
115.5000 1.1377
116.0000 1.1366
116.5000 1.1354
117.0000 1.1342
117.5000 1.1331
118.0000 1.1319
118.5000 1.1307
119.0000 1.1296
119.5000 1.1284
120.0000 1.1272
120.5000 1.1261
121.0000 1.1249
121.5000 1.1237
122.0000 1.1226
122.5000 1.1214
123.0000 1.1202
123.5000 1.1191
124.0000 1.1179
124.5000 1.1167
125.0000 1.1156
125.5000 1.1144
126.0000 1.1132
126.5000 1.1121
127.0000 1.1109
127.5000 1.1098
128.0000 1.1086
128.5000 1.1074
129.0000 1.1063
129.5000 1.1051
130.0000 1.1040
130.5000 1.1028
131.0000 1.1017
131.5000 1.1005
132.0000 1.0994
132.5000 1.0982
133.0000 1.0971
133.5000 1.0959
134.0000 1.0948
134.5000 1.0936
135.0000 1.0925
135.5000 1.0913
136.0000 1.0902
136.5000 1.0890
137.0000 1.0879
137.5000 1.0868
138.0000 1.0856
138.5000 1.0845
139.0000 1.0834
139.5000 1.0822
140.0000 1.0811
140.5000 1.0800
141.0000 1.0789
141.5000 1.0777
142.0000 1.0766
142.5000 1.0755
143.0000 1.0744
143.5000 1.0732
144.0000 1.0721
144.5000 1.0710
145.0000 1.0699
145.5000 1.0688
146.0000 1.0677
146.5000 1.0666
147.0000 1.0655
147.5000 1.0644
148.0000 1.0633
148.5000 1.0622
149.0000 1.0611
149.5000 1.0600
150.0000 1.0589
150.5000 1.0578
151.0000 1.0567
151.5000 1.0556
152.0000 1.0545
152.5000 1.0534
153.0000 1.0523
153.5000 1.0512
154.0000 1.0502
154.5000 1.0491
155.0000 1.0480
155.5000 1.0469
156.0000 1.0459
156.5000 1.0448
157.0000 1.0437
157.5000 1.0427
158.0000 1.0416
158.5000 1.0405
159.0000 1.0395
159.5000 1.0384
160.0000 1.0374
160.5000 1.0363
161.0000 1.0352
161.5000 1.0342
162.0000 1.0331
162.5000 1.0321
163.0000 1.0311
163.5000 1.0300
164.0000 1.0290
164.5000 1.0279
165.0000 1.0269
165.5000 1.0259
166.0000 1.0248
166.5000 1.0238
167.0000 1.0228
167.5000 1.0217
168.0000 1.0207
168.5000 1.0197
169.0000 1.0187
169.5000 1.0177
170.0000 1.0166
170.5000 1.0156
171.0000 1.0146
171.5000 1.0136
172.0000 1.0126
172.5000 1.0116
173.0000 1.0106
173.5000 1.0096
174.0000 1.0086
174.5000 1.0076
175.0000 1.0066
175.5000 1.0056
176.0000 1.0046
176.5000 1.0036
177.0000 1.0026
177.5000 1.0016
178.0000 1.0007
178.5000 0.9997
179.0000 0.9987
179.5000 0.9977
180.0000 0.9967
180.5000 0.9958
181.0000 0.9948
181.5000 0.9938
182.0000 0.9929
182.5000 0.9919
183.0000 0.9909
183.5000 0.9900
184.0000 0.9890
184.5000 0.9880
185.0000 0.9871
185.5000 0.9861
186.0000 0.9852
186.5000 0.9842
187.0000 0.9833
187.5000 0.9823
188.0000 0.9814
188.5000 0.9805
189.0000 0.9795
189.5000 0.9786
190.0000 0.9776
190.5000 0.9767
191.0000 0.9758
191.5000 0.9749
192.0000 0.9739
192.5000 0.9730
193.0000 0.9721
193.5000 0.9712
194.0000 0.9702
194.5000 0.9693
195.0000 0.9684
195.5000 0.9675
196.0000 0.9666
196.5000 0.9657
197.0000 0.9648
197.5000 0.9638
198.0000 0.9629
198.5000 0.9620
199.0000 0.9611
199.5000 0.9602
200.0000 0.9593
