time [s] Activity [arb units]
0.0000 0.0932
0.5000 2.4681
1.0000 1.8444
1.5000 1.4783
2.0000 1.2731
2.5000 1.1349
3.0000 1.0338
3.5000 0.9585
4.0000 0.9027
4.5000 0.8619
5.0000 0.8328
5.5000 0.8126
6.0000 0.7995
6.5000 0.7917
7.0000 0.7880
7.5000 0.7875
8.0000 0.7893
8.5000 0.7931
9.0000 0.7981
9.5000 0.8042
10.0000 0.8111
10.5000 0.8184
11.0000 0.8262
11.5000 0.8342
12.0000 0.8423
12.5000 0.8505
13.0000 0.8587
13.5000 0.8669
14.0000 0.8750
14.5000 0.8830
15.0000 0.8909
15.5000 0.8987
16.0000 0.9063
16.5000 0.9138
17.0000 0.9212
17.5000 0.9283
18.0000 0.9354
18.5000 0.9423
19.0000 0.9490
19.5000 0.9556
20.0000 0.9620
20.5000 0.9683
21.0000 0.9745
21.5000 0.9805
22.0000 0.9863
22.5000 0.9920
23.0000 0.9976
23.5000 1.0030
24.0000 1.0083
24.5000 1.0135
25.0000 1.0185
25.5000 1.0234
26.0000 1.0282
26.5000 1.0329
27.0000 1.0374
27.5000 1.0419
28.0000 1.0462
28.5000 1.0504
29.0000 1.0545
29.5000 1.0585
30.0000 1.0623
30.5000 1.0661
31.0000 1.0698
31.5000 1.0734
32.0000 1.0768
32.5000 1.0802
33.0000 1.0835
33.5000 1.0867
34.0000 1.0898
34.5000 1.0928
35.0000 1.0957
35.5000 1.0986
36.0000 1.1013
36.5000 1.1040
37.0000 1.1066
37.5000 1.1091
38.0000 1.1115
38.5000 1.1139
39.0000 1.1162
39.5000 1.1184
40.0000 1.1205
40.5000 1.1226
41.0000 1.1246
41.5000 1.1266
42.0000 1.1284
42.5000 1.1303
43.0000 1.1320
43.5000 1.1337
44.0000 1.1353
44.5000 1.1369
45.0000 1.1384
45.5000 1.1398
46.0000 1.1412
46.5000 1.1426
47.0000 1.1439
47.5000 1.1451
48.0000 1.1463
48.5000 1.1474
49.0000 1.1485
49.5000 1.1495
50.0000 1.1505
50.5000 1.1515
51.0000 1.1524
51.5000 1.1532
52.0000 1.1540
52.5000 1.1548
53.0000 1.1555
53.5000 1.1562
54.0000 1.1568
54.5000 1.1574
55.0000 1.1580
55.5000 1.1585
56.0000 1.1590
56.5000 1.1595
57.0000 1.1599
57.5000 1.1603
58.0000 1.1607
58.5000 1.1610
59.0000 1.1613
59.5000 1.1615
60.0000 1.1617
60.5000 1.1619
61.0000 1.1621
61.5000 1.1622
62.0000 1.1623
62.5000 1.1624
63.0000 1.1625
63.5000 1.1625
64.0000 1.1625
64.5000 1.1625
65.0000 1.1624
65.5000 1.1624
66.0000 1.1623
66.5000 1.1621
67.0000 1.1620
67.5000 1.1618
68.0000 1.1616
68.5000 1.1614
69.0000 1.1612
69.5000 1.1609
70.0000 1.1607
70.5000 1.1604
71.0000 1.1601
71.5000 1.1597
72.0000 1.1594
72.5000 1.1590
73.0000 1.1586
73.5000 1.1582
74.0000 1.1578
74.5000 1.1574
75.0000 1.1569
75.5000 1.1565
76.0000 1.1560
76.5000 1.1555
77.0000 1.1550
77.5000 1.1544
78.0000 1.1539
78.5000 1.1534
79.0000 1.1528
79.5000 1.1522
80.0000 1.1516
80.5000 1.1510
81.0000 1.1504
81.5000 1.1498
82.0000 1.1491
82.5000 1.1485
83.0000 1.1478
83.5000 1.1472
84.0000 1.1465
84.5000 1.1458
85.0000 1.1451
85.5000 1.1444
86.0000 1.1437
86.5000 1.1429
87.0000 1.1422
87.5000 1.1414
88.0000 1.1407
88.5000 1.1399
89.0000 1.1392
89.5000 1.1384
90.0000 1.1376
90.5000 1.1368
91.0000 1.1360
91.5000 1.1352
92.0000 1.1344
92.5000 1.1335
93.0000 1.1327
93.5000 1.1319
94.0000 1.1310
94.5000 1.1302
95.0000 1.1293
95.5000 1.1285
96.0000 1.1276
96.5000 1.1268
97.0000 1.1259
97.5000 1.1250
98.0000 1.1241
98.5000 1.1232
99.0000 1.1223
99.5000 1.1214
100.0000 1.1205
100.5000 1.1196
101.0000 1.1187
101.5000 1.1178
102.0000 1.1169
102.5000 1.1160
103.0000 1.1150
103.5000 1.1141
104.0000 1.1132
104.5000 1.1122
105.0000 1.1113
105.5000 1.1104
106.0000 1.1094
106.5000 1.1085
107.0000 1.1075
107.5000 1.1066
108.0000 1.1056
108.5000 1.1047
109.0000 1.1037
109.5000 1.1028
110.0000 1.1018
110.5000 1.1008
111.0000 1.0999
111.5000 1.0989
112.0000 1.0979
112.5000 1.0969
113.0000 1.0960
113.5000 1.0950
114.0000 1.0940
114.5000 1.0930
115.0000 1.0921
115.5000 1.0911
116.0000 1.0901
116.5000 1.0891
117.0000 1.0881
117.5000 1.0872
118.0000 1.0862
118.5000 1.0852
119.0000 1.0842
119.5000 1.0832
120.0000 1.0822
120.5000 1.0812
121.0000 1.0803
121.5000 1.0793
122.0000 1.0783
122.5000 1.0773
123.0000 1.0763
123.5000 1.0753
124.0000 1.0743
124.5000 1.0733
125.0000 1.0723
125.5000 1.0713
126.0000 1.0704
126.5000 1.0694
127.0000 1.0684
127.5000 1.0674
128.0000 1.0664
128.5000 1.0654
129.0000 1.0644
129.5000 1.0634
130.0000 1.0624
130.5000 1.0614
131.0000 1.0605
131.5000 1.0595
132.0000 1.0585
132.5000 1.0575
133.0000 1.0565
133.5000 1.0555
134.0000 1.0545
134.5000 1.0535
135.0000 1.0526
135.5000 1.0516
136.0000 1.0506
136.5000 1.0496
137.0000 1.0486
137.5000 1.0477
138.0000 1.0467
138.5000 1.0457
139.0000 1.0447
139.5000 1.0437
140.0000 1.0428
140.5000 1.0418
141.0000 1.0408
141.5000 1.0398
142.0000 1.0389
142.5000 1.0379
143.0000 1.0369
143.5000 1.0360
144.0000 1.0350
144.5000 1.0340
145.0000 1.0331
145.5000 1.0321
146.0000 1.0311
146.5000 1.0302
147.0000 1.0292
147.5000 1.0283
148.0000 1.0273
148.5000 1.0263
149.0000 1.0254
149.5000 1.0244
150.0000 1.0235
150.5000 1.0225
151.0000 1.0216
151.5000 1.0206
152.0000 1.0197
152.5000 1.0187
153.0000 1.0178
153.5000 1.0168
154.0000 1.0159
154.5000 1.0149
155.0000 1.0140
155.5000 1.0131
156.0000 1.0121
156.5000 1.0112
157.0000 1.0103
157.5000 1.0093
158.0000 1.0084
158.5000 1.0075
159.0000 1.0065
159.5000 1.0056
160.0000 1.0047
160.5000 1.0038
161.0000 1.0028
161.5000 1.0019
162.0000 1.0010
162.5000 1.0001
163.0000 0.9992
163.5000 0.9982
164.0000 0.9973
164.5000 0.9964
165.0000 0.9955
165.5000 0.9946
166.0000 0.9937
166.5000 0.9928
167.0000 0.9919
167.5000 0.9910
168.0000 0.9901
168.5000 0.9892
169.0000 0.9883
169.5000 0.9874
170.0000 0.9865
170.5000 0.9856
171.0000 0.9847
171.5000 0.9838
172.0000 0.9829
172.5000 0.9820
173.0000 0.9811
173.5000 0.9803
174.0000 0.9794
174.5000 0.9785
175.0000 0.9776
175.5000 0.9767
176.0000 0.9759
176.5000 0.9750
177.0000 0.9741
177.5000 0.9732
178.0000 0.9724
178.5000 0.9715
179.0000 0.9706
179.5000 0.9698
180.0000 0.9689
180.5000 0.9680
181.0000 0.9672
181.5000 0.9663
182.0000 0.9655
182.5000 0.9646
183.0000 0.9637
183.5000 0.9629
184.0000 0.9620
184.5000 0.9612
185.0000 0.9603
185.5000 0.9595
186.0000 0.9587
186.5000 0.9578
187.0000 0.9570
187.5000 0.9561
188.0000 0.9553
188.5000 0.9544
189.0000 0.9536
189.5000 0.9528
190.0000 0.9519
190.5000 0.9511
191.0000 0.9503
191.5000 0.9495
192.0000 0.9486
192.5000 0.9478
193.0000 0.9470
193.5000 0.9462
194.0000 0.9453
194.5000 0.9445
195.0000 0.9437
195.5000 0.9429
196.0000 0.9421
196.5000 0.9413
197.0000 0.9405
197.5000 0.9396
198.0000 0.9388
198.5000 0.9380
199.0000 0.9372
199.5000 0.9364
200.0000 0.9356
