time [s] Activity [arb units]
0.0000 0.0932
0.0167 0.0938
0.0333 0.0944
0.0500 0.0950
0.0667 0.0955
0.0833 0.0961
0.1000 0.0967
0.1167 0.0973
0.1333 0.0979
0.1500 0.0985
0.1667 0.0990
0.1833 0.0996
0.2000 0.1002
0.2167 0.1008
0.2333 0.1014
0.2500 0.1019
0.2667 0.1025
0.2833 0.1031
0.3000 0.1037
0.3167 0.1043
0.3333 0.1048
0.3500 0.1054
0.3667 0.1060
0.3833 0.1066
0.4000 0.1071
0.4167 0.1077
0.4333 0.1083
0.4500 0.1089
0.4667 0.1094
0.4833 0.1100
0.5000 0.1106
0.5167 0.1112
0.5333 0.1117
0.5500 0.1123
0.5667 0.1129
0.5833 0.1135
0.6000 0.1140
0.6167 0.1146
0.6333 0.1152
0.6500 0.1157
0.6667 0.1163
0.6833 0.1169
0.7000 0.1175
0.7167 0.1180
0.7333 0.1186
0.7500 0.1192
0.7667 0.1197
0.7833 0.1203
0.8000 0.1209
0.8167 0.1214
0.8333 0.1220
0.8500 0.1226
0.8667 0.1231
0.8833 0.1237
0.9000 0.1243
0.9167 0.1248
0.9333 0.1254
0.9500 0.1260
0.9667 0.1265
0.9833 0.1271
1.0000 0.1277
1.0167 0.1282
1.0333 0.1288
1.0500 0.1293
1.0667 0.1299
1.0833 0.1305
1.1000 0.1310
1.1167 0.1316
1.1333 0.1321
1.1500 0.1327
1.1667 0.1333
1.1833 0.1338
1.2000 0.1344
1.2167 0.1349
1.2333 0.1355
1.2500 0.1361
1.2667 0.1366
1.2833 0.1372
1.3000 0.1377
1.3167 0.1383
1.3333 0.1388
1.3500 0.1394
1.3667 0.1399
1.3833 0.1405
1.4000 0.1411
1.4167 0.1416
1.4333 0.1422
1.4500 0.1427
1.4667 0.1433
1.4833 0.1438
1.5000 0.1444
1.5167 0.1449
1.5333 0.1455
1.5500 0.1460
1.5667 0.1466
1.5833 0.1471
1.6000 0.1477
1.6167 0.1482
1.6333 0.1488
1.6500 0.1493
1.6667 0.1499
1.6833 0.1504
1.7000 0.1510
1.7167 0.1515
1.7333 0.1521
1.7500 0.1526
1.7667 0.1532
1.7833 0.1537
1.8000 0.1543
1.8167 0.1548
1.8333 0.1553
1.8500 0.1559
1.8667 0.1564
1.8833 0.1570
1.9000 0.1575
1.9167 0.1581
1.9333 0.1586
1.9500 0.1591
1.9667 0.1597
1.9833 0.1602
2.0000 0.1608
2.0167 0.1613
2.0333 0.1619
2.0500 0.1624
2.0667 0.1629
2.0833 0.1635
2.1000 0.1640
2.1167 0.1646
2.1333 0.1651
2.1500 0.1656
2.1667 0.1662
2.1833 0.1667
2.2000 0.1672
2.2167 0.1678
2.2333 0.1683
2.2500 0.1689
2.2667 0.1694
2.2833 0.1699
2.3000 0.1705
2.3167 0.1710
2.3333 0.1715
2.3500 0.1721
2.3667 0.1726
2.3833 0.1731
2.4000 0.1737
2.4167 0.1742
2.4333 0.1747
2.4500 0.1753
2.4667 0.1758
2.4833 0.1763
2.5000 0.1769
2.5167 0.1774
2.5333 0.1779
2.5500 0.1784
2.5667 0.1790
2.5833 0.1795
2.6000 0.1800
2.6167 0.1806
2.6333 0.1811
2.6500 0.1816
2.6667 0.1821
2.6833 0.1827
2.7000 0.1832
2.7167 0.1837
2.7333 0.1842
2.7500 0.1848
2.7667 0.1853
2.7833 0.1858
2.8000 0.1863
2.8167 0.1869
2.8333 0.1874
2.8500 0.1879
2.8667 0.1884
2.8833 0.1890
2.9000 0.1895
2.9167 0.1900
2.9333 0.1905
2.9500 0.1911
2.9667 0.1916
2.9833 0.1921
3.0000 0.1926
3.0167 0.1931
3.0333 0.1937
3.0500 0.1942
3.0667 0.1947
3.0833 0.1952
3.1000 0.1957
3.1167 0.1963
3.1333 0.1968
3.1500 0.1973
3.1667 0.1978
3.1833 0.1983
3.2000 0.1988
3.2167 0.1994
3.2333 0.1999
3.2500 0.2004
3.2667 0.2009
3.2833 0.2014
3.3000 0.2019
3.3167 0.2024
3.3333 0.2030
3.3500 0.2035
3.3667 0.2040
3.3833 0.2045
3.4000 0.2050
3.4167 0.2055
3.4333 0.2060
3.4500 0.2065
3.4667 0.2071
3.4833 0.2076
3.5000 0.2081
3.5167 0.2086
3.5333 0.2091
3.5500 0.2096
3.5667 0.2101
3.5833 0.2106
3.6000 0.2111
3.6167 0.2116
3.6333 0.2121
3.6500 0.2127
3.6667 0.2132
3.6833 0.2137
3.7000 0.2142
3.7167 0.2147
3.7333 0.2152
3.7500 0.2157
3.7667 0.2162
3.7833 0.2167
3.8000 0.2172
3.8167 0.2177
3.8333 0.2182
3.8500 0.2187
3.8667 0.2192
3.8833 0.2197
3.9000 0.2202
3.9167 0.2207
3.9333 0.2212
3.9500 0.2217
3.9667 0.2222
3.9833 0.2227
4.0000 0.2232
4.0167 0.2237
4.0333 0.2242
4.0500 0.2247
4.0667 0.2252
4.0833 0.2257
4.1000 0.2262
4.1167 0.2267
4.1333 0.2272
4.1500 0.2277
4.1667 0.2282
4.1833 0.2287
4.2000 0.2292
4.2167 0.2297
4.2333 0.2302
4.2500 0.2307
4.2667 0.2312
4.2833 0.2317
4.3000 0.2322
4.3167 0.2327
4.3333 0.2332
4.3500 0.2337
4.3667 0.2342
4.3833 0.2347
4.4000 0.2351
4.4167 0.2356
4.4333 0.2361
4.4500 0.2366
4.4667 0.2371
4.4833 0.2376
4.5000 0.2381
4.5167 0.2386
4.5333 0.2391
4.5500 0.2396
4.5667 0.2401
4.5833 0.2405
4.6000 0.2410
4.6167 0.2415
4.6333 0.2420
4.6500 0.2425
4.6667 0.2430
4.6833 0.2435
4.7000 0.2440
4.7167 0.2444
4.7333 0.2449
4.7500 0.2454
4.7667 0.2459
4.7833 0.2464
4.8000 0.2469
4.8167 0.2474
4.8333 0.2478
4.8500 0.2483
4.8667 0.2488
4.8833 0.2493
4.9000 0.2498
4.9167 0.2503
4.9333 0.2507
4.9500 0.2512
4.9667 0.2517
4.9833 0.2522
5.0000 0.2527
5.0167 0.2531
5.0333 0.2536
5.0500 0.2541
5.0667 0.2546
5.0833 0.2551
5.1000 0.2555
5.1167 0.2560
5.1333 0.2565
5.1500 0.2570
5.1667 0.2575
5.1833 0.2579
5.2000 0.2584
5.2167 0.2589
5.2333 0.2594
5.2500 0.2598
5.2667 0.2603
5.2833 0.2608
5.3000 0.2613
5.3167 0.2617
5.3333 0.2622
5.3500 0.2627
5.3667 0.2632
5.3833 0.2636
5.4000 0.2641
5.4167 0.2646
5.4333 0.2651
5.4500 0.2655
5.4667 0.2660
5.4833 0.2665
5.5000 0.2669
5.5167 0.2674
5.5333 0.2679
5.5500 0.2684
5.5667 0.2688
5.5833 0.2693
5.6000 0.2698
5.6167 0.2702
5.6333 0.2707
5.6500 0.2712
5.6667 0.2716
5.6833 0.2721
5.7000 0.2726
5.7167 0.2730
5.7333 0.2735
5.7500 0.2740
5.7667 0.2744
5.7833 0.2749
5.8000 0.2754
5.8167 0.2758
5.8333 0.2763
5.8500 0.2768
5.8667 0.2772
5.8833 0.2777
5.9000 0.2782
5.9167 0.2786
5.9333 0.2791
5.9500 0.2796
5.9667 0.2800
5.9833 0.2805
6.0000 0.2810
6.0167 0.2814
6.0333 0.2819
6.0500 0.2823
6.0667 0.2828
6.0833 0.2833
6.1000 0.2837
6.1167 0.2842
6.1333 0.2846
6.1500 0.2851
6.1667 0.2856
6.1833 0.2860
6.2000 0.2865
6.2167 0.2869
6.2333 0.2874
6.2500 0.2878
6.2667 0.2883
6.2833 0.2888
6.3000 0.2892
6.3167 0.2897
6.3333 0.2901
6.3500 0.2906
6.3667 0.2910
6.3833 0.2915
6.4000 0.2920
6.4167 0.2924
6.4333 0.2929
6.4500 0.2933
6.4667 0.2938
6.4833 0.2942
6.5000 0.2947
6.5167 0.2951
6.5333 0.2956
6.5500 0.2960
6.5667 0.2965
6.5833 0.2969
6.6000 0.2974
6.6167 0.2978
6.6333 0.2983
6.6500 0.2987
6.6667 0.2992
6.6833 0.2996
6.7000 0.3001
6.7167 0.3005
6.7333 0.3010
6.7500 0.3014
6.7667 0.3019
6.7833 0.3023
6.8000 0.3028
6.8167 0.3032
6.8333 0.3037
6.8500 0.3041
6.8667 0.3046
6.8833 0.3050
6.9000 0.3055
6.9167 0.3059
6.9333 0.3064
6.9500 0.3068
6.9667 0.3073
6.9833 0.3077
7.0000 0.3081
7.0167 0.3086
7.0333 0.3090
7.0500 0.3095
7.0667 0.3099
7.0833 0.3104
7.1000 0.3108
7.1167 0.3112
7.1333 0.3117
7.1500 0.3121
7.1667 0.3126
7.1833 0.3130
7.2000 0.3135
7.2167 0.3139
7.2333 0.3143
7.2500 0.3148
7.2667 0.3152
7.2833 0.3157
7.3000 0.3161
7.3167 0.3165
7.3333 0.3170
7.3500 0.3174
7.3667 0.3178
7.3833 0.3183
7.4000 0.3187
7.4167 0.3192
7.4333 0.3196
7.4500 0.3200
7.4667 0.3205
7.4833 0.3209
7.5000 0.3213
7.5167 0.3218
7.5333 0.3222
7.5500 0.3226
7.5667 0.3231
7.5833 0.3235
7.6000 0.3239
7.6167 0.3244
7.6333 0.3248
7.6500 0.3252
7.6667 0.3257
7.6833 0.3261
7.7000 0.3265
7.7167 0.3270
7.7333 0.3274
7.7500 0.3278
7.7667 0.3283
7.7833 0.3287
7.8000 0.3291
7.8167 0.3296
7.8333 0.3300
7.8500 0.3304
7.8667 0.3309
7.8833 0.3313
7.9000 0.3317
7.9167 0.3321
7.9333 0.3326
7.9500 0.3330
7.9667 0.3334
7.9833 0.3338
8.0000 0.3343
8.0167 0.3347
8.0333 0.3351
8.0500 0.3356
8.0667 0.3360
8.0833 0.3364
8.1000 0.3368
8.1167 0.3373
8.1333 0.3377
8.1500 0.3381
8.1667 0.3385
8.1833 0.3390
8.2000 0.3394
8.2167 0.3398
8.2333 0.3402
8.2500 0.3406
8.2667 0.3411
8.2833 0.3415
8.3000 0.3419
8.3167 0.3423
8.3333 0.3428
8.3500 0.3432
8.3667 0.3436
8.3833 0.3440
8.4000 0.3444
8.4167 0.3449
8.4333 0.3453
8.4500 0.3457
8.4667 0.3461
8.4833 0.3465
8.5000 0.3470
8.5167 0.3474
8.5333 0.3478
8.5500 0.3482
8.5667 0.3486
8.5833 0.3490
8.6000 0.3495
8.6167 0.3499
8.6333 0.3503
8.6500 0.3507
8.6667 0.3511
8.6833 0.3515
8.7000 0.3520
8.7167 0.3524
8.7333 0.3528
8.7500 0.3532
8.7667 0.3536
8.7833 0.3540
8.8000 0.3545
8.8167 0.3549
8.8333 0.3553
8.8500 0.3557
8.8667 0.3561
8.8833 0.3565
8.9000 0.3569
8.9167 0.3573
8.9333 0.3578
8.9500 0.3582
8.9667 0.3586
8.9833 0.3590
9.0000 0.3594
9.0167 0.3598
9.0333 0.3602
9.0500 0.3606
9.0667 0.3610
9.0833 0.3614
9.1000 0.3619
9.1167 0.3623
9.1333 0.3627
9.1500 0.3631
9.1667 0.3635
9.1833 0.3639
9.2000 0.3643
9.2167 0.3647
9.2333 0.3651
9.2500 0.3655
9.2667 0.3659
9.2833 0.3663
9.3000 0.3667
9.3167 0.3671
9.3333 0.3675
9.3500 0.3680
9.3667 0.3684
9.3833 0.3688
9.4000 0.3692
9.4167 0.3696
9.4333 0.3700
9.4500 0.3704
9.4667 0.3708
9.4833 0.3712
9.5000 0.3716
9.5167 0.3720
9.5333 0.3724
9.5500 0.3728
9.5667 0.3732
9.5833 0.3736
9.6000 0.3740
9.6167 0.3744
9.6333 0.3748
9.6500 0.3752
9.6667 0.3756
9.6833 0.3760
9.7000 0.3764
9.7167 0.3768
9.7333 0.3772
9.7500 0.3776
9.7667 0.3780
9.7833 0.3784
9.8000 0.3788
9.8167 0.3792
9.8333 0.3796
9.8500 0.3800
9.8667 0.3804
9.8833 0.3808
9.9000 0.3812
9.9167 0.3816
9.9333 0.3820
9.9500 0.3823
9.9667 0.3827
9.9833 0.3831
10.0000 0.3835
10.0167 0.3839
10.0333 0.3843
10.0500 0.3847
10.0667 0.3851
10.0833 0.3855
10.1000 0.3859
10.1167 0.3863
10.1333 0.3867
10.1500 0.3871
10.1667 0.3875
10.1833 0.3879
10.2000 0.3882
10.2167 0.3886
10.2333 0.3890
10.2500 0.3894
10.2667 0.3898
10.2833 0.3902
10.3000 0.3906
10.3167 0.3910
10.3333 0.3914
10.3500 0.3918
10.3667 0.3921
10.3833 0.3925
10.4000 0.3929
10.4167 0.3933
10.4333 0.3937
10.4500 0.3941
10.4667 0.3945
10.4833 0.3949
10.5000 0.3952
10.5167 0.3956
10.5333 0.3960
10.5500 0.3964
10.5667 0.3968
10.5833 0.3972
10.6000 0.3976
10.6167 0.3979
10.6333 0.3983
10.6500 0.3987
10.6667 0.3991
10.6833 0.3995
10.7000 0.3999
10.7167 0.4003
10.7333 0.4006
10.7500 0.4010
10.7667 0.4014
10.7833 0.4018
10.8000 0.4022
10.8167 0.4025
10.8333 0.4029
10.8500 0.4033
10.8667 0.4037
10.8833 0.4041
10.9000 0.4045
10.9167 0.4048
10.9333 0.4052
10.9500 0.4056
10.9667 0.4060
10.9833 0.4064
11.0000 0.4067
11.0167 0.4071
11.0333 0.4075
11.0500 0.4079
11.0667 0.4082
11.0833 0.4086
11.1000 0.4090
11.1167 0.4094
11.1333 0.4098
11.1500 0.4101
11.1667 0.4105
11.1833 0.4109
11.2000 0.4113
11.2167 0.4116
11.2333 0.4120
11.2500 0.4124
11.2667 0.4128
11.2833 0.4131
11.3000 0.4135
11.3167 0.4139
11.3333 0.4143
11.3500 0.4146
11.3667 0.4150
11.3833 0.4154
11.4000 0.4158
11.4167 0.4161
11.4333 0.4165
11.4500 0.4169
11.4667 0.4172
11.4833 0.4176
11.5000 0.4180
11.5167 0.4184
11.5333 0.4187
11.5500 0.4191
11.5667 0.4195
11.5833 0.4198
11.6000 0.4202
11.6167 0.4206
11.6333 0.4209
11.6500 0.4213
11.6667 0.4217
11.6833 0.4221
11.7000 0.4224
11.7167 0.4228
11.7333 0.4232
11.7500 0.4235
11.7667 0.4239
11.7833 0.4243
11.8000 0.4246
11.8167 0.4250
11.8333 0.4254
11.8500 0.4257
11.8667 0.4261
11.8833 0.4265
11.9000 0.4268
11.9167 0.4272
11.9333 0.4276
11.9500 0.4279
11.9667 0.4283
11.9833 0.4287
12.0000 0.4290
12.0167 0.4294
12.0333 0.4297
12.0500 0.4301
12.0667 0.4305
12.0833 0.4308
12.1000 0.4312
12.1167 0.4316
12.1333 0.4319
12.1500 0.4323
12.1667 0.4326
12.1833 0.4330
12.2000 0.4334
12.2167 0.4337
12.2333 0.4341
12.2500 0.4345
12.2667 0.4348
12.2833 0.4352
12.3000 0.4355
12.3167 0.4359
12.3333 0.4363
12.3500 0.4366
12.3667 0.4370
12.3833 0.4373
12.4000 0.4377
12.4167 0.4380
12.4333 0.4384
12.4500 0.4388
12.4667 0.4391
12.4833 0.4395
12.5000 0.4398
12.5167 0.4402
12.5333 0.4405
12.5500 0.4409
12.5667 0.4413
12.5833 0.4416
12.6000 0.4420
12.6167 0.4423
12.6333 0.4427
12.6500 0.4430
12.6667 0.4434
12.6833 0.4437
12.7000 0.4441
12.7167 0.4445
12.7333 0.4448
12.7500 0.4452
12.7667 0.4455
12.7833 0.4459
12.8000 0.4462
12.8167 0.4466
12.8333 0.4469
12.8500 0.4473
12.8667 0.4476
12.8833 0.4480
12.9000 0.4483
12.9167 0.4487
12.9333 0.4490
12.9500 0.4494
12.9667 0.4497
12.9833 0.4501
13.0000 0.4504
13.0167 0.4508
13.0333 0.4511
13.0500 0.4515
13.0667 0.4518
13.0833 0.4522
13.1000 0.4525
13.1167 0.4529
13.1333 0.4532
13.1500 0.4536
13.1667 0.4539
13.1833 0.4543
13.2000 0.4546
13.2167 0.4550
13.2333 0.4553
13.2500 0.4557
13.2667 0.4560
13.2833 0.4563
13.3000 0.4567
13.3167 0.4570
13.3333 0.4574
13.3500 0.4577
13.3667 0.4581
13.3833 0.4584
13.4000 0.4588
13.4167 0.4591
13.4333 0.4595
13.4500 0.4598
13.4667 0.4601
13.4833 0.4605
13.5000 0.4608
13.5167 0.4612
13.5333 0.4615
13.5500 0.4619
13.5667 0.4622
13.5833 0.4625
13.6000 0.4629
13.6167 0.4632
13.6333 0.4636
13.6500 0.4639
13.6667 0.4642
13.6833 0.4646
13.7000 0.4649
13.7167 0.4653
13.7333 0.4656
13.7500 0.4659
13.7667 0.4663
13.7833 0.4666
13.8000 0.4670
13.8167 0.4673
13.8333 0.4676
13.8500 0.4680
13.8667 0.4683
13.8833 0.4687
13.9000 0.4690
13.9167 0.4693
13.9333 0.4697
13.9500 0.4700
13.9667 0.4703
13.9833 0.4707
14.0000 0.4710
14.0167 0.4713
14.0333 0.4717
14.0500 0.4720
14.0667 0.4724
14.0833 0.4727
14.1000 0.4730
14.1167 0.4734
14.1333 0.4737
14.1500 0.4740
14.1667 0.4744
14.1833 0.4747
14.2000 0.4750
14.2167 0.4754
14.2333 0.4757
14.2500 0.4760
14.2667 0.4764
14.2833 0.4767
14.3000 0.4770
14.3167 0.4774
14.3333 0.4777
14.3500 0.4780
14.3667 0.4784
14.3833 0.4787
14.4000 0.4790
14.4167 0.4793
14.4333 0.4797
14.4500 0.4800
14.4667 0.4803
14.4833 0.4807
14.5000 0.4810
14.5167 0.4813
14.5333 0.4817
14.5500 0.4820
14.5667 0.4823
14.5833 0.4826
14.6000 0.4830
14.6167 0.4833
14.6333 0.4836
14.6500 0.4839
14.6667 0.4843
14.6833 0.4846
14.7000 0.4849
14.7167 0.4853
14.7333 0.4856
14.7500 0.4859
14.7667 0.4862
14.7833 0.4866
14.8000 0.4869
14.8167 0.4872
14.8333 0.4875
14.8500 0.4879
14.8667 0.4882
14.8833 0.4885
14.9000 0.4888
14.9167 0.4892
14.9333 0.4895
14.9500 0.4898
14.9667 0.4901
14.9833 0.4905
15.0000 0.4908
15.0167 0.4911
15.0333 0.4914
15.0500 0.4917
15.0667 0.4921
15.0833 0.4924
15.1000 0.4927
15.1167 0.4930
15.1333 0.4934
15.1500 0.4937
15.1667 0.4940
15.1833 0.4943
15.2000 0.4946
15.2167 0.4950
15.2333 0.4953
15.2500 0.4956
15.2667 0.4959
15.2833 0.4962
15.3000 0.4966
15.3167 0.4969
15.3333 0.4972
15.3500 0.4975
15.3667 0.4978
15.3833 0.4981
15.4000 0.4985
15.4167 0.4988
15.4333 0.4991
15.4500 0.4994
15.4667 0.4997
15.4833 0.5001
15.5000 0.5004
15.5167 0.5007
15.5333 0.5010
15.5500 0.5013
15.5667 0.5016
15.5833 0.5019
15.6000 0.5023
15.6167 0.5026
15.6333 0.5029
15.6500 0.5032
15.6667 0.5035
15.6833 0.5038
15.7000 0.5042
15.7167 0.5045
15.7333 0.5048
15.7500 0.5051
15.7667 0.5054
15.7833 0.5057
15.8000 0.5060
15.8167 0.5063
15.8333 0.5067
15.8500 0.5070
15.8667 0.5073
15.8833 0.5076
15.9000 0.5079
15.9167 0.5082
15.9333 0.5085
15.9500 0.5088
15.9667 0.5091
15.9833 0.5095
16.0000 0.5098
16.0167 0.5101
16.0333 0.5104
16.0500 0.5107
16.0667 0.5110
16.0833 0.5113
16.1000 0.5116
16.1167 0.5119
16.1333 0.5122
16.1500 0.5125
16.1667 0.5129
16.1833 0.5132
16.2000 0.5135
16.2167 0.5138
16.2333 0.5141
16.2500 0.5144
16.2667 0.5147
16.2833 0.5150
16.3000 0.5153
16.3167 0.5156
16.3333 0.5159
16.3500 0.5162
16.3667 0.5165
16.3833 0.5168
16.4000 0.5172
16.4167 0.5175
16.4333 0.5178
16.4500 0.5181
16.4667 0.5184
16.4833 0.5187
16.5000 0.5190
16.5167 0.5193
16.5333 0.5196
16.5500 0.5199
16.5667 0.5202
16.5833 0.5205
16.6000 0.5208
16.6167 0.5211
16.6333 0.5214
16.6500 0.5217
16.6667 0.5220
16.6833 0.5223
16.7000 0.5226
16.7167 0.5229
16.7333 0.5232
16.7500 0.5235
16.7667 0.5238
16.7833 0.5241
16.8000 0.5244
16.8167 0.5247
16.8333 0.5250
16.8500 0.5253
16.8667 0.5256
16.8833 0.5259
16.9000 0.5262
16.9167 0.5265
16.9333 0.5268
16.9500 0.5271
16.9667 0.5274
16.9833 0.5277
17.0000 0.5280
17.0167 0.5283
17.0333 0.5286
17.0500 0.5289
17.0667 0.5292
17.0833 0.5295
17.1000 0.5298
17.1167 0.5301
17.1333 0.5304
17.1500 0.5307
17.1667 0.5310
17.1833 0.5313
17.2000 0.5316
17.2167 0.5319
17.2333 0.5322
17.2500 0.5325
17.2667 0.5327
17.2833 0.5330
17.3000 0.5333
17.3167 0.5336
17.3333 0.5339
17.3500 0.5342
17.3667 0.5345
17.3833 0.5348
17.4000 0.5351
17.4167 0.5354
17.4333 0.5357
17.4500 0.5360
17.4667 0.5363
17.4833 0.5366
17.5000 0.5369
17.5167 0.5371
17.5333 0.5374
17.5500 0.5377
17.5667 0.5380
17.5833 0.5383
17.6000 0.5386
17.6167 0.5389
17.6333 0.5392
17.6500 0.5395
17.6667 0.5398
17.6833 0.5401
17.7000 0.5403
17.7167 0.5406
17.7333 0.5409
17.7500 0.5412
17.7667 0.5415
17.7833 0.5418
17.8000 0.5421
17.8167 0.5424
17.8333 0.5427
17.8500 0.5429
17.8667 0.5432
17.8833 0.5435
17.9000 0.5438
17.9167 0.5441
17.9333 0.5444
17.9500 0.5447
17.9667 0.5450
17.9833 0.5452
18.0000 0.5455
18.0167 0.5458
18.0333 0.5461
18.0500 0.5464
18.0667 0.5467
18.0833 0.5470
18.1000 0.5472
18.1167 0.5475
18.1333 0.5478
18.1500 0.5481
18.1667 0.5484
18.1833 0.5487
18.2000 0.5489
18.2167 0.5492
18.2333 0.5495
18.2500 0.5498
18.2667 0.5501
18.2833 0.5504
18.3000 0.5506
18.3167 0.5509
18.3333 0.5512
18.3500 0.5515
18.3667 0.5518
18.3833 0.5521
18.4000 0.5523
18.4167 0.5526
18.4333 0.5529
18.4500 0.5532
18.4667 0.5535
18.4833 0.5537
18.5000 0.5540
18.5167 0.5543
18.5333 0.5546
18.5500 0.5549
18.5667 0.5551
18.5833 0.5554
18.6000 0.5557
18.6167 0.5560
18.6333 0.5563
18.6500 0.5565
18.6667 0.5568
18.6833 0.5571
18.7000 0.5574
18.7167 0.5576
18.7333 0.5579
18.7500 0.5582
18.7667 0.5585
18.7833 0.5588
18.8000 0.5590
18.8167 0.5593
18.8333 0.5596
18.8500 0.5599
18.8667 0.5601
18.8833 0.5604
18.9000 0.5607
18.9167 0.5610
18.9333 0.5612
18.9500 0.5615
18.9667 0.5618
18.9833 0.5621
19.0000 0.5623
19.0167 0.5626
19.0333 0.5629
19.0500 0.5632
19.0667 0.5634
19.0833 0.5637
19.1000 0.5640
19.1167 0.5643
19.1333 0.5645
19.1500 0.5648
19.1667 0.5651
19.1833 0.5654
19.2000 0.5656
19.2167 0.5659
19.2333 0.5662
19.2500 0.5664
19.2667 0.5667
19.2833 0.5670
19.3000 0.5673
19.3167 0.5675
19.3333 0.5678
19.3500 0.5681
19.3667 0.5683
19.3833 0.5686
19.4000 0.5689
19.4167 0.5692
19.4333 0.5694
19.4500 0.5697
19.4667 0.5700
19.4833 0.5702
19.5000 0.5705
19.5167 0.5708
19.5333 0.5710
19.5500 0.5713
19.5667 0.5716
19.5833 0.5719
19.6000 0.5721
19.6167 0.5724
19.6333 0.5727
19.6500 0.5729
19.6667 0.5732
19.6833 0.5735
19.7000 0.5737
19.7167 0.5740
19.7333 0.5743
19.7500 0.5745
19.7667 0.5748
19.7833 0.5751
19.8000 0.5753
19.8167 0.5756
19.8333 0.5759
19.8500 0.5761
19.8667 0.5764
19.8833 0.5767
19.9000 0.5769
19.9167 0.5772
19.9333 0.5774
19.9500 0.5777
19.9667 0.5780
19.9833 0.5782
20.0000 0.5785
20.0167 0.5788
20.0333 0.5790
20.0500 0.5793
20.0667 0.5796
20.0833 0.5798
20.1000 0.5801
20.1167 0.5803
20.1333 0.5806
20.1500 0.5809
20.1667 0.5811
20.1833 0.5814
20.2000 0.5817
20.2167 0.5819
20.2333 0.5822
20.2500 0.5824
20.2667 0.5827
20.2833 0.5830
20.3000 0.5832
20.3167 0.5835
20.3333 0.5837
20.3500 0.5840
20.3667 0.5843
20.3833 0.5845
20.4000 0.5848
20.4167 0.5850
20.4333 0.5853
20.4500 0.5856
20.4667 0.5858
20.4833 0.5861
20.5000 0.5863
20.5167 0.5866
20.5333 0.5869
20.5500 0.5871
20.5667 0.5874
20.5833 0.5876
20.6000 0.5879
20.6167 0.5881
20.6333 0.5884
20.6500 0.5887
20.6667 0.5889
20.6833 0.5892
20.7000 0.5894
20.7167 0.5897
20.7333 0.5899
20.7500 0.5902
20.7667 0.5905
20.7833 0.5907
20.8000 0.5910
20.8167 0.5912
20.8333 0.5915
20.8500 0.5917
20.8667 0.5920
20.8833 0.5922
20.9000 0.5925
20.9167 0.5927
20.9333 0.5930
20.9500 0.5933
20.9667 0.5935
20.9833 0.5938
21.0000 0.5940
21.0167 0.5943
21.0333 0.5945
21.0500 0.5948
21.0667 0.5950
21.0833 0.5953
21.1000 0.5955
21.1167 0.5958
21.1333 0.5960
21.1500 0.5963
21.1667 0.5965
21.1833 0.5968
21.2000 0.5970
21.2167 0.5973
21.2333 0.5975
21.2500 0.5978
21.2667 0.5980
21.2833 0.5983
21.3000 0.5985
21.3167 0.5988
21.3333 0.5990
21.3500 0.5993
21.3667 0.5995
21.3833 0.5998
21.4000 0.6000
21.4167 0.6003
21.4333 0.6005
21.4500 0.6008
21.4667 0.6010
21.4833 0.6013
21.5000 0.6015
21.5167 0.6018
21.5333 0.6020
21.5500 0.6023
21.5667 0.6025
21.5833 0.6028
21.6000 0.6030
21.6167 0.6033
21.6333 0.6035
21.6500 0.6038
21.6667 0.6040
21.6833 0.6043
21.7000 0.6045
21.7167 0.6047
21.7333 0.6050
21.7500 0.6052
21.7667 0.6055
21.7833 0.6057
21.8000 0.6060
21.8167 0.6062
21.8333 0.6065
21.8500 0.6067
21.8667 0.6070
21.8833 0.6072
21.9000 0.6074
21.9167 0.6077
21.9333 0.6079
21.9500 0.6082
21.9667 0.6084
21.9833 0.6087
22.0000 0.6089
22.0167 0.6091
22.0333 0.6094
22.0500 0.6096
22.0667 0.6099
22.0833 0.6101
22.1000 0.6104
22.1167 0.6106
22.1333 0.6108
22.1500 0.6111
22.1667 0.6113
22.1833 0.6116
22.2000 0.6118
22.2167 0.6121
22.2333 0.6123
22.2500 0.6125
22.2667 0.6128
22.2833 0.6130
22.3000 0.6133
22.3167 0.6135
22.3333 0.6137
22.3500 0.6140
22.3667 0.6142
22.3833 0.6145
22.4000 0.6147
22.4167 0.6149
22.4333 0.6152
22.4500 0.6154
22.4667 0.6157
22.4833 0.6159
22.5000 0.6161
22.5167 0.6164
22.5333 0.6166
22.5500 0.6168
22.5667 0.6171
22.5833 0.6173
22.6000 0.6176
22.6167 0.6178
22.6333 0.6180
22.6500 0.6183
22.6667 0.6185
22.6833 0.6187
22.7000 0.6190
22.7167 0.6192
22.7333 0.6194
22.7500 0.6197
22.7667 0.6199
22.7833 0.6202
22.8000 0.6204
22.8167 0.6206
22.8333 0.6209
22.8500 0.6211
22.8667 0.6213
22.8833 0.6216
22.9000 0.6218
22.9167 0.6220
22.9333 0.6223
22.9500 0.6225
22.9667 0.6227
22.9833 0.6230
23.0000 0.6232
23.0167 0.6234
23.0333 0.6237
23.0500 0.6239
23.0667 0.6241
23.0833 0.6244
23.1000 0.6246
23.1167 0.6248
23.1333 0.6251
23.1500 0.6253
23.1667 0.6255
23.1833 0.6258
23.2000 0.6260
23.2167 0.6262
23.2333 0.6265
23.2500 0.6267
23.2667 0.6269
23.2833 0.6271
23.3000 0.6274
23.3167 0.6276
23.3333 0.6278
23.3500 0.6281
23.3667 0.6283
23.3833 0.6285
23.4000 0.6288
23.4167 0.6290
23.4333 0.6292
23.4500 0.6294
23.4667 0.6297
23.4833 0.6299
23.5000 0.6301
23.5167 0.6304
23.5333 0.6306
23.5500 0.6308
23.5667 0.6310
23.5833 0.6313
23.6000 0.6315
23.6167 0.6317
23.6333 0.6320
23.6500 0.6322
23.6667 0.6324
23.6833 0.6326
23.7000 0.6329
23.7167 0.6331
23.7333 0.6333
23.7500 0.6335
23.7667 0.6338
23.7833 0.6340
23.8000 0.6342
23.8167 0.6345
23.8333 0.6347
23.8500 0.6349
23.8667 0.6351
23.8833 0.6354
23.9000 0.6356
23.9167 0.6358
23.9333 0.6360
23.9500 0.6363
23.9667 0.6365
23.9833 0.6367
24.0000 0.6369
24.0167 0.6371
24.0333 0.6374
24.0500 0.6376
24.0667 0.6378
24.0833 0.6380
24.1000 0.6383
24.1167 0.6385
24.1333 0.6387
24.1500 0.6389
24.1667 0.6392
24.1833 0.6394
24.2000 0.6396
24.2167 0.6398
24.2333 0.6400
24.2500 0.6403
24.2667 0.6405
24.2833 0.6407
24.3000 0.6409
24.3167 0.6412
24.3333 0.6414
24.3500 0.6416
24.3667 0.6418
24.3833 0.6420
24.4000 0.6423
24.4167 0.6425
24.4333 0.6427
24.4500 0.6429
24.4667 0.6431
24.4833 0.6434
24.5000 0.6436
24.5167 0.6438
24.5333 0.6440
24.5500 0.6442
24.5667 0.6445
24.5833 0.6447
24.6000 0.6449
24.6167 0.6451
24.6333 0.6453
24.6500 0.6455
24.6667 0.6458
24.6833 0.6460
24.7000 0.6462
24.7167 0.6464
24.7333 0.6466
24.7500 0.6469
24.7667 0.6471
24.7833 0.6473
24.8000 0.6475
24.8167 0.6477
24.8333 0.6479
24.8500 0.6482
24.8667 0.6484
24.8833 0.6486
24.9000 0.6488
24.9167 0.6490
24.9333 0.6492
24.9500 0.6494
24.9667 0.6497
24.9833 0.6499
25.0000 0.6501
25.0167 0.6503
25.0333 0.6505
25.0500 0.6507
25.0667 0.6510
25.0833 0.6512
25.1000 0.6514
25.1167 0.6516
25.1333 0.6518
25.1500 0.6520
25.1667 0.6522
25.1833 0.6525
25.2000 0.6527
25.2167 0.6529
25.2333 0.6531
25.2500 0.6533
25.2667 0.6535
25.2833 0.6537
25.3000 0.6539
25.3167 0.6542
25.3333 0.6544
25.3500 0.6546
25.3667 0.6548
25.3833 0.6550
25.4000 0.6552
25.4167 0.6554
25.4333 0.6556
25.4500 0.6558
25.4667 0.6561
25.4833 0.6563
25.5000 0.6565
25.5167 0.6567
25.5333 0.6569
25.5500 0.6571
25.5667 0.6573
25.5833 0.6575
25.6000 0.6577
25.6167 0.6580
25.6333 0.6582
25.6500 0.6584
25.6667 0.6586
25.6833 0.6588
25.7000 0.6590
25.7167 0.6592
25.7333 0.6594
25.7500 0.6596
25.7667 0.6598
25.7833 0.6600
25.8000 0.6602
25.8167 0.6605
25.8333 0.6607
25.8500 0.6609
25.8667 0.6611
25.8833 0.6613
25.9000 0.6615
25.9167 0.6617
25.9333 0.6619
25.9500 0.6621
25.9667 0.6623
25.9833 0.6625
26.0000 0.6627
26.0167 0.6629
26.0333 0.6631
26.0500 0.6634
26.0667 0.6636
26.0833 0.6638
26.1000 0.6640
26.1167 0.6642
26.1333 0.6644
26.1500 0.6646
26.1667 0.6648
26.1833 0.6650
26.2000 0.6652
26.2167 0.6654
26.2333 0.6656
26.2500 0.6658
26.2667 0.6660
26.2833 0.6662
26.3000 0.6664
26.3167 0.6666
26.3333 0.6668
26.3500 0.6670
26.3667 0.6672
26.3833 0.6674
26.4000 0.6676
26.4167 0.6678
26.4333 0.6681
26.4500 0.6683
26.4667 0.6685
26.4833 0.6687
26.5000 0.6689
26.5167 0.6691
26.5333 0.6693
26.5500 0.6695
26.5667 0.6697
26.5833 0.6699
26.6000 0.6701
26.6167 0.6703
26.6333 0.6705
26.6500 0.6707
26.6667 0.6709
26.6833 0.6711
26.7000 0.6713
26.7167 0.6715
26.7333 0.6717
26.7500 0.6719
26.7667 0.6721
26.7833 0.6723
26.8000 0.6725
26.8167 0.6727
26.8333 0.6729
26.8500 0.6731
26.8667 0.6733
26.8833 0.6735
26.9000 0.6737
26.9167 0.6739
26.9333 0.6741
26.9500 0.6743
26.9667 0.6745
26.9833 0.6747
27.0000 0.6749
27.0167 0.6751
27.0333 0.6753
27.0500 0.6755
27.0667 0.6757
27.0833 0.6758
27.1000 0.6760
27.1167 0.6762
27.1333 0.6764
27.1500 0.6766
27.1667 0.6768
27.1833 0.6770
27.2000 0.6772
27.2167 0.6774
27.2333 0.6776
27.2500 0.6778
27.2667 0.6780
27.2833 0.6782
27.3000 0.6784
27.3167 0.6786
27.3333 0.6788
27.3500 0.6790
27.3667 0.6792
27.3833 0.6794
27.4000 0.6796
27.4167 0.6798
27.4333 0.6800
27.4500 0.6802
27.4667 0.6804
27.4833 0.6805
27.5000 0.6807
27.5167 0.6809
27.5333 0.6811
27.5500 0.6813
27.5667 0.6815
27.5833 0.6817
27.6000 0.6819
27.6167 0.6821
27.6333 0.6823
27.6500 0.6825
27.6667 0.6827
27.6833 0.6829
27.7000 0.6831
27.7167 0.6832
27.7333 0.6834
27.7500 0.6836
27.7667 0.6838
27.7833 0.6840
27.8000 0.6842
27.8167 0.6844
27.8333 0.6846
27.8500 0.6848
27.8667 0.6850
27.8833 0.6852
27.9000 0.6854
27.9167 0.6855
27.9333 0.6857
27.9500 0.6859
27.9667 0.6861
27.9833 0.6863
28.0000 0.6865
28.0167 0.6867
28.0333 0.6869
28.0500 0.6871
28.0667 0.6873
28.0833 0.6874
28.1000 0.6876
28.1167 0.6878
28.1333 0.6880
28.1500 0.6882
28.1667 0.6884
28.1833 0.6886
28.2000 0.6888
28.2167 0.6890
28.2333 0.6891
28.2500 0.6893
28.2667 0.6895
28.2833 0.6897
28.3000 0.6899
28.3167 0.6901
28.3333 0.6903
28.3500 0.6905
28.3667 0.6906
28.3833 0.6908
28.4000 0.6910
28.4167 0.6912
28.4333 0.6914
28.4500 0.6916
28.4667 0.6918
28.4833 0.6919
28.5000 0.6921
28.5167 0.6923
28.5333 0.6925
28.5500 0.6927
28.5667 0.6929
28.5833 0.6931
28.6000 0.6932
28.6167 0.6934
28.6333 0.6936
28.6500 0.6938
28.6667 0.6940
28.6833 0.6942
28.7000 0.6944
28.7167 0.6945
28.7333 0.6947
28.7500 0.6949
28.7667 0.6951
28.7833 0.6953
28.8000 0.6955
28.8167 0.6956
28.8333 0.6958
28.8500 0.6960
28.8667 0.6962
28.8833 0.6964
28.9000 0.6966
28.9167 0.6967
28.9333 0.6969
28.9500 0.6971
28.9667 0.6973
28.9833 0.6975
29.0000 0.6977
29.0167 0.6978
29.0333 0.6980
29.0500 0.6982
29.0667 0.6984
29.0833 0.6986
29.1000 0.6987
29.1167 0.6989
29.1333 0.6991
29.1500 0.6993
29.1667 0.6995
29.1833 0.6997
29.2000 0.6998
29.2167 0.7000
29.2333 0.7002
29.2500 0.7004
29.2667 0.7006
29.2833 0.7007
29.3000 0.7009
29.3167 0.7011
29.3333 0.7013
29.3500 0.7015
29.3667 0.7016
29.3833 0.7018
29.4000 0.7020
29.4167 0.7022
29.4333 0.7024
29.4500 0.7025
29.4667 0.7027
29.4833 0.7029
29.5000 0.7031
29.5167 0.7032
29.5333 0.7034
29.5500 0.7036
29.5667 0.7038
29.5833 0.7040
29.6000 0.7041
29.6167 0.7043
29.6333 0.7045
29.6500 0.7047
29.6667 0.7048
29.6833 0.7050
29.7000 0.7052
29.7167 0.7054
29.7333 0.7056
29.7500 0.7057
29.7667 0.7059
29.7833 0.7061
29.8000 0.7063
29.8167 0.7064
29.8333 0.7066
29.8500 0.7068
29.8667 0.7070
29.8833 0.7071
29.9000 0.7073
29.9167 0.7075
29.9333 0.7077
29.9500 0.7078
29.9667 0.7080
29.9833 0.7082
30.0000 0.7084
30.0167 0.7085
30.0333 0.7087
30.0500 0.7089
30.0667 0.7091
30.0833 0.7092
30.1000 0.7094
30.1167 0.7096
30.1333 0.7098
30.1500 0.7099
30.1667 0.7101
30.1833 0.7103
30.2000 0.7105
30.2167 0.7106
30.2333 0.7108
30.2500 0.7110
30.2667 0.7111
30.2833 0.7113
30.3000 0.7115
30.3167 0.7117
30.3333 0.7118
30.3500 0.7120
30.3667 0.7122
30.3833 0.7123
30.4000 0.7125
30.4167 0.7127
30.4333 0.7129
30.4500 0.7130
30.4667 0.7132
30.4833 0.7134
30.5000 0.7135
30.5167 0.7137
30.5333 0.7139
30.5500 0.7141
30.5667 0.7142
30.5833 0.7144
30.6000 0.7146
30.6167 0.7147
30.6333 0.7149
30.6500 0.7151
30.6667 0.7153
30.6833 0.7154
30.7000 0.7156
30.7167 0.7158
30.7333 0.7159
30.7500 0.7161
30.7667 0.7163
30.7833 0.7164
30.8000 0.7166
30.8167 0.7168
30.8333 0.7169
30.8500 0.7171
30.8667 0.7173
30.8833 0.7175
30.9000 0.7176
30.9167 0.7178
30.9333 0.7180
30.9500 0.7181
30.9667 0.7183
30.9833 0.7185
31.0000 0.7186
31.0167 0.7188
31.0333 0.7190
31.0500 0.7191
31.0667 0.7193
31.0833 0.7195
31.1000 0.7196
31.1167 0.7198
31.1333 0.7200
31.1500 0.7201
31.1667 0.7203
31.1833 0.7205
31.2000 0.7206
31.2167 0.7208
31.2333 0.7210
31.2500 0.7211
31.2667 0.7213
31.2833 0.7215
31.3000 0.7216
31.3167 0.7218
31.3333 0.7220
31.3500 0.7221
31.3667 0.7223
31.3833 0.7225
31.4000 0.7226
31.4167 0.7228
31.4333 0.7229
31.4500 0.7231
31.4667 0.7233
31.4833 0.7234
31.5000 0.7236
31.5167 0.7238
31.5333 0.7239
31.5500 0.7241
31.5667 0.7243
31.5833 0.7244
31.6000 0.7246
31.6167 0.7247
31.6333 0.7249
31.6500 0.7251
31.6667 0.7252
31.6833 0.7254
31.7000 0.7256
31.7167 0.7257
31.7333 0.7259
31.7500 0.7260
31.7667 0.7262
31.7833 0.7264
31.8000 0.7265
31.8167 0.7267
31.8333 0.7269
31.8500 0.7270
31.8667 0.7272
31.8833 0.7273
31.9000 0.7275
31.9167 0.7277
31.9333 0.7278
31.9500 0.7280
31.9667 0.7281
31.9833 0.7283
32.0000 0.7285
32.0167 0.7286
32.0333 0.7288
32.0500 0.7290
32.0667 0.7291
32.0833 0.7293
32.1000 0.7294
32.1167 0.7296
32.1333 0.7298
32.1500 0.7299
32.1667 0.7301
32.1833 0.7302
32.2000 0.7304
32.2167 0.7305
32.2333 0.7307
32.2500 0.7309
32.2667 0.7310
32.2833 0.7312
32.3000 0.7313
32.3167 0.7315
32.3333 0.7317
32.3500 0.7318
32.3667 0.7320
32.3833 0.7321
32.4000 0.7323
32.4167 0.7325
32.4333 0.7326
32.4500 0.7328
32.4667 0.7329
32.4833 0.7331
32.5000 0.7332
32.5167 0.7334
32.5333 0.7336
32.5500 0.7337
32.5667 0.7339
32.5833 0.7340
32.6000 0.7342
32.6167 0.7343
32.6333 0.7345
32.6500 0.7346
32.6667 0.7348
32.6833 0.7350
32.7000 0.7351
32.7167 0.7353
32.7333 0.7354
32.7500 0.7356
32.7667 0.7357
32.7833 0.7359
32.8000 0.7361
32.8167 0.7362
32.8333 0.7364
32.8500 0.7365
32.8667 0.7367
32.8833 0.7368
32.9000 0.7370
32.9167 0.7371
32.9333 0.7373
32.9500 0.7374
32.9667 0.7376
32.9833 0.7378
33.0000 0.7379
33.0167 0.7381
33.0333 0.7382
33.0500 0.7384
33.0667 0.7385
33.0833 0.7387
33.1000 0.7388
33.1167 0.7390
33.1333 0.7391
33.1500 0.7393
33.1667 0.7394
33.1833 0.7396
33.2000 0.7397
33.2167 0.7399
33.2333 0.7401
33.2500 0.7402
33.2667 0.7404
33.2833 0.7405
33.3000 0.7407
33.3167 0.7408
33.3333 0.7410
33.3500 0.7411
33.3667 0.7413
33.3833 0.7414
33.4000 0.7416
33.4167 0.7417
33.4333 0.7419
33.4500 0.7420
33.4667 0.7422
33.4833 0.7423
33.5000 0.7425
33.5167 0.7426
33.5333 0.7428
33.5500 0.7429
33.5667 0.7431
33.5833 0.7432
33.6000 0.7434
33.6167 0.7435
33.6333 0.7437
33.6500 0.7438
33.6667 0.7440
33.6833 0.7441
33.7000 0.7443
33.7167 0.7444
33.7333 0.7446
33.7500 0.7447
33.7667 0.7449
33.7833 0.7450
33.8000 0.7452
33.8167 0.7453
33.8333 0.7455
33.8500 0.7456
33.8667 0.7458
33.8833 0.7459
33.9000 0.7461
33.9167 0.7462
33.9333 0.7464
33.9500 0.7465
33.9667 0.7467
33.9833 0.7468
34.0000 0.7470
34.0167 0.7471
34.0333 0.7472
34.0500 0.7474
34.0667 0.7475
34.0833 0.7477
34.1000 0.7478
34.1167 0.7480
34.1333 0.7481
34.1500 0.7483
34.1667 0.7484
34.1833 0.7486
34.2000 0.7487
34.2167 0.7489
34.2333 0.7490
34.2500 0.7492
34.2667 0.7493
34.2833 0.7494
34.3000 0.7496
34.3167 0.7497
34.3333 0.7499
34.3500 0.7500
34.3667 0.7502
34.3833 0.7503
34.4000 0.7505
34.4167 0.7506
34.4333 0.7508
34.4500 0.7509
34.4667 0.7510
34.4833 0.7512
34.5000 0.7513
34.5167 0.7515
34.5333 0.7516
34.5500 0.7518
34.5667 0.7519
34.5833 0.7521
34.6000 0.7522
34.6167 0.7523
34.6333 0.7525
34.6500 0.7526
34.6667 0.7528
34.6833 0.7529
34.7000 0.7531
34.7167 0.7532
34.7333 0.7533
34.7500 0.7535
34.7667 0.7536
34.7833 0.7538
34.8000 0.7539
34.8167 0.7541
34.8333 0.7542
34.8500 0.7543
34.8667 0.7545
34.8833 0.7546
34.9000 0.7548
34.9167 0.7549
34.9333 0.7551
34.9500 0.7552
34.9667 0.7553
34.9833 0.7555
35.0000 0.7556
35.0167 0.7558
35.0333 0.7559
35.0500 0.7560
35.0667 0.7562
35.0833 0.7563
35.1000 0.7565
35.1167 0.7566
35.1333 0.7567
35.1500 0.7569
35.1667 0.7570
35.1833 0.7572
35.2000 0.7573
35.2167 0.7574
35.2333 0.7576
35.2500 0.7577
35.2667 0.7579
35.2833 0.7580
35.3000 0.7581
35.3167 0.7583
35.3333 0.7584
35.3500 0.7586
35.3667 0.7587
35.3833 0.7588
35.4000 0.7590
35.4167 0.7591
35.4333 0.7593
35.4500 0.7594
35.4667 0.7595
35.4833 0.7597
35.5000 0.7598
35.5167 0.7600
35.5333 0.7601
35.5500 0.7602
35.5667 0.7604
35.5833 0.7605
35.6000 0.7606
35.6167 0.7608
35.6333 0.7609
35.6500 0.7611
35.6667 0.7612
35.6833 0.7613
35.7000 0.7615
35.7167 0.7616
35.7333 0.7617
35.7500 0.7619
35.7667 0.7620
35.7833 0.7622
35.8000 0.7623
35.8167 0.7624
35.8333 0.7626
35.8500 0.7627
35.8667 0.7628
35.8833 0.7630
35.9000 0.7631
35.9167 0.7632
35.9333 0.7634
35.9500 0.7635
35.9667 0.7637
35.9833 0.7638
36.0000 0.7639
36.0167 0.7641
36.0333 0.7642
36.0500 0.7643
36.0667 0.7645
36.0833 0.7646
36.1000 0.7647
36.1167 0.7649
36.1333 0.7650
36.1500 0.7651
36.1667 0.7653
36.1833 0.7654
36.2000 0.7655
36.2167 0.7657
36.2333 0.7658
36.2500 0.7659
36.2667 0.7661
36.2833 0.7662
36.3000 0.7663
36.3167 0.7665
36.3333 0.7666
36.3500 0.7667
36.3667 0.7669
36.3833 0.7670
36.4000 0.7671
36.4167 0.7673
36.4333 0.7674
36.4500 0.7675
36.4667 0.7677
36.4833 0.7678
36.5000 0.7679
36.5167 0.7681
36.5333 0.7682
36.5500 0.7683
36.5667 0.7685
36.5833 0.7686
36.6000 0.7687
36.6167 0.7689
36.6333 0.7690
36.6500 0.7691
36.6667 0.7693
36.6833 0.7694
36.7000 0.7695
36.7167 0.7697
36.7333 0.7698
36.7500 0.7699
36.7667 0.7701
36.7833 0.7702
36.8000 0.7703
36.8167 0.7704
36.8333 0.7706
36.8500 0.7707
36.8667 0.7708
36.8833 0.7710
36.9000 0.7711
36.9167 0.7712
36.9333 0.7714
36.9500 0.7715
36.9667 0.7716
36.9833 0.7718
37.0000 0.7719
37.0167 0.7720
37.0333 0.7721
37.0500 0.7723
37.0667 0.7724
37.0833 0.7725
37.1000 0.7727
37.1167 0.7728
37.1333 0.7729
37.1500 0.7730
37.1667 0.7732
37.1833 0.7733
37.2000 0.7734
37.2167 0.7736
37.2333 0.7737
37.2500 0.7738
37.2667 0.7739
37.2833 0.7741
37.3000 0.7742
37.3167 0.7743
37.3333 0.7745
37.3500 0.7746
37.3667 0.7747
37.3833 0.7748
37.4000 0.7750
37.4167 0.7751
37.4333 0.7752
37.4500 0.7754
37.4667 0.7755
37.4833 0.7756
37.5000 0.7757
37.5167 0.7759
37.5333 0.7760
37.5500 0.7761
37.5667 0.7762
37.5833 0.7764
37.6000 0.7765
37.6167 0.7766
37.6333 0.7767
37.6500 0.7769
37.6667 0.7770
37.6833 0.7771
37.7000 0.7772
37.7167 0.7774
37.7333 0.7775
37.7500 0.7776
37.7667 0.7778
37.7833 0.7779
37.8000 0.7780
37.8167 0.7781
37.8333 0.7783
37.8500 0.7784
37.8667 0.7785
37.8833 0.7786
37.9000 0.7788
37.9167 0.7789
37.9333 0.7790
37.9500 0.7791
37.9667 0.7793
37.9833 0.7794
38.0000 0.7795
38.0167 0.7796
38.0333 0.7797
38.0500 0.7799
38.0667 0.7800
38.0833 0.7801
38.1000 0.7802
38.1167 0.7804
38.1333 0.7805
38.1500 0.7806
38.1667 0.7807
38.1833 0.7809
38.2000 0.7810
38.2167 0.7811
38.2333 0.7812
38.2500 0.7814
38.2667 0.7815
38.2833 0.7816
38.3000 0.7817
38.3167 0.7818
38.3333 0.7820
38.3500 0.7821
38.3667 0.7822
38.3833 0.7823
38.4000 0.7825
38.4167 0.7826
38.4333 0.7827
38.4500 0.7828
38.4667 0.7829
38.4833 0.7831
38.5000 0.7832
38.5167 0.7833
38.5333 0.7834
38.5500 0.7836
38.5667 0.7837
38.5833 0.7838
38.6000 0.7839
38.6167 0.7840
38.6333 0.7842
38.6500 0.7843
38.6667 0.7844
38.6833 0.7845
38.7000 0.7846
38.7167 0.7848
38.7333 0.7849
38.7500 0.7850
38.7667 0.7851
38.7833 0.7852
38.8000 0.7854
38.8167 0.7855
38.8333 0.7856
38.8500 0.7857
38.8667 0.7858
38.8833 0.7860
38.9000 0.7861
38.9167 0.7862
38.9333 0.7863
38.9500 0.7864
38.9667 0.7866
38.9833 0.7867
39.0000 0.7868
39.0167 0.7869
39.0333 0.7870
39.0500 0.7872
39.0667 0.7873
39.0833 0.7874
39.1000 0.7875
39.1167 0.7876
39.1333 0.7877
39.1500 0.7879
39.1667 0.7880
39.1833 0.7881
39.2000 0.7882
39.2167 0.7883
39.2333 0.7885
39.2500 0.7886
39.2667 0.7887
39.2833 0.7888
39.3000 0.7889
39.3167 0.7890
39.3333 0.7892
39.3500 0.7893
39.3667 0.7894
39.3833 0.7895
39.4000 0.7896
39.4167 0.7897
39.4333 0.7899
39.4500 0.7900
39.4667 0.7901
39.4833 0.7902
39.5000 0.7903
39.5167 0.7904
39.5333 0.7906
39.5500 0.7907
39.5667 0.7908
39.5833 0.7909
39.6000 0.7910
39.6167 0.7911
39.6333 0.7913
39.6500 0.7914
39.6667 0.7915
39.6833 0.7916
39.7000 0.7917
39.7167 0.7918
39.7333 0.7919
39.7500 0.7921
39.7667 0.7922
39.7833 0.7923
39.8000 0.7924
39.8167 0.7925
39.8333 0.7926
39.8500 0.7928
39.8667 0.7929
39.8833 0.7930
39.9000 0.7931
39.9167 0.7932
39.9333 0.7933
39.9500 0.7934
39.9667 0.7936
39.9833 0.7937
40.0000 0.7938
40.0167 0.7939
40.0333 0.7940
40.0500 0.7941
40.0667 0.7942
40.0833 0.7943
40.1000 0.7945
40.1167 0.7946
40.1333 0.7947
40.1500 0.7948
40.1667 0.7949
40.1833 0.7950
40.2000 0.7951
40.2167 0.7953
40.2333 0.7954
40.2500 0.7955
40.2667 0.7956
40.2833 0.7957
40.3000 0.7958
40.3167 0.7959
40.3333 0.7960
40.3500 0.7962
40.3667 0.7963
40.3833 0.7964
40.4000 0.7965
40.4167 0.7966
40.4333 0.7967
40.4500 0.7968
40.4667 0.7969
40.4833 0.7970
40.5000 0.7972
40.5167 0.7973
40.5333 0.7974
40.5500 0.7975
40.5667 0.7976
40.5833 0.7977
40.6000 0.7978
40.6167 0.7979
40.6333 0.7980
40.6500 0.7982
40.6667 0.7983
40.6833 0.7984
40.7000 0.7985
40.7167 0.7986
40.7333 0.7987
40.7500 0.7988
40.7667 0.7989
40.7833 0.7990
40.8000 0.7992
40.8167 0.7993
40.8333 0.7994
40.8500 0.7995
40.8667 0.7996
40.8833 0.7997
40.9000 0.7998
40.9167 0.7999
40.9333 0.8000
40.9500 0.8001
40.9667 0.8002
40.9833 0.8004
41.0000 0.8005
41.0167 0.8006
41.0333 0.8007
41.0500 0.8008
41.0667 0.8009
41.0833 0.8010
41.1000 0.8011
41.1167 0.8012
41.1333 0.8013
41.1500 0.8014
41.1667 0.8016
41.1833 0.8017
41.2000 0.8018
41.2167 0.8019
41.2333 0.8020
41.2500 0.8021
41.2667 0.8022
41.2833 0.8023
41.3000 0.8024
41.3167 0.8025
41.3333 0.8026
41.3500 0.8027
41.3667 0.8028
41.3833 0.8030
41.4000 0.8031
41.4167 0.8032
41.4333 0.8033
41.4500 0.8034
41.4667 0.8035
41.4833 0.8036
41.5000 0.8037
41.5167 0.8038
41.5333 0.8039
41.5500 0.8040
41.5667 0.8041
41.5833 0.8042
41.6000 0.8043
41.6167 0.8044
41.6333 0.8046
41.6500 0.8047
41.6667 0.8048
41.6833 0.8049
41.7000 0.8050
41.7167 0.8051
41.7333 0.8052
41.7500 0.8053
41.7667 0.8054
41.7833 0.8055
41.8000 0.8056
41.8167 0.8057
41.8333 0.8058
41.8500 0.8059
41.8667 0.8060
41.8833 0.8061
41.9000 0.8062
41.9167 0.8063
41.9333 0.8064
41.9500 0.8066
41.9667 0.8067
41.9833 0.8068
42.0000 0.8069
42.0167 0.8070
42.0333 0.8071
42.0500 0.8072
42.0667 0.8073
42.0833 0.8074
42.1000 0.8075
42.1167 0.8076
42.1333 0.8077
42.1500 0.8078
42.1667 0.8079
42.1833 0.8080
42.2000 0.8081
42.2167 0.8082
42.2333 0.8083
42.2500 0.8084
42.2667 0.8085
42.2833 0.8086
42.3000 0.8087
42.3167 0.8088
42.3333 0.8089
42.3500 0.8090
42.3667 0.8091
42.3833 0.8092
42.4000 0.8093
42.4167 0.8094
42.4333 0.8095
42.4500 0.8097
42.4667 0.8098
42.4833 0.8099
42.5000 0.8100
42.5167 0.8101
42.5333 0.8102
42.5500 0.8103
42.5667 0.8104
42.5833 0.8105
42.6000 0.8106
42.6167 0.8107
42.6333 0.8108
42.6500 0.8109
42.6667 0.8110
42.6833 0.8111
42.7000 0.8112
42.7167 0.8113
42.7333 0.8114
42.7500 0.8115
42.7667 0.8116
42.7833 0.8117
42.8000 0.8118
42.8167 0.8119
42.8333 0.8120
42.8500 0.8121
42.8667 0.8122
42.8833 0.8123
42.9000 0.8124
42.9167 0.8125
42.9333 0.8126
42.9500 0.8127
42.9667 0.8128
42.9833 0.8129
43.0000 0.8130
43.0167 0.8131
43.0333 0.8132
43.0500 0.8133
43.0667 0.8134
43.0833 0.8135
43.1000 0.8136
43.1167 0.8137
43.1333 0.8138
43.1500 0.8139
43.1667 0.8140
43.1833 0.8141
43.2000 0.8142
43.2167 0.8143
43.2333 0.8144
43.2500 0.8145
43.2667 0.8146
43.2833 0.8147
43.3000 0.8148
43.3167 0.8149
43.3333 0.8150
43.3500 0.8151
43.3667 0.8152
43.3833 0.8153
43.4000 0.8154
43.4167 0.8155
43.4333 0.8156
43.4500 0.8156
43.4667 0.8157
43.4833 0.8158
43.5000 0.8159
43.5167 0.8160
43.5333 0.8161
43.5500 0.8162
43.5667 0.8163
43.5833 0.8164
43.6000 0.8165
43.6167 0.8166
43.6333 0.8167
43.6500 0.8168
43.6667 0.8169
43.6833 0.8170
43.7000 0.8171
43.7167 0.8172
43.7333 0.8173
43.7500 0.8174
43.7667 0.8175
43.7833 0.8176
43.8000 0.8177
43.8167 0.8178
43.8333 0.8179
43.8500 0.8180
43.8667 0.8181
43.8833 0.8182
43.9000 0.8183
43.9167 0.8184
43.9333 0.8185
43.9500 0.8185
43.9667 0.8186
43.9833 0.8187
44.0000 0.8188
44.0167 0.8189
44.0333 0.8190
44.0500 0.8191
44.0667 0.8192
44.0833 0.8193
44.1000 0.8194
44.1167 0.8195
44.1333 0.8196
44.1500 0.8197
44.1667 0.8198
44.1833 0.8199
44.2000 0.8200
44.2167 0.8201
44.2333 0.8202
44.2500 0.8203
44.2667 0.8204
44.2833 0.8204
44.3000 0.8205
44.3167 0.8206
44.3333 0.8207
44.3500 0.8208
44.3667 0.8209
44.3833 0.8210
44.4000 0.8211
44.4167 0.8212
44.4333 0.8213
44.4500 0.8214
44.4667 0.8215
44.4833 0.8216
44.5000 0.8217
44.5167 0.8218
44.5333 0.8219
44.5500 0.8219
44.5667 0.8220
44.5833 0.8221
44.6000 0.8222
44.6167 0.8223
44.6333 0.8224
44.6500 0.8225
44.6667 0.8226
44.6833 0.8227
44.7000 0.8228
44.7167 0.8229
44.7333 0.8230
44.7500 0.8231
44.7667 0.8231
44.7833 0.8232
44.8000 0.8233
44.8167 0.8234
44.8333 0.8235
44.8500 0.8236
44.8667 0.8237
44.8833 0.8238
44.9000 0.8239
44.9167 0.8240
44.9333 0.8241
44.9500 0.8242
44.9667 0.8242
44.9833 0.8243
45.0000 0.8244
45.0167 0.8245
45.0333 0.8246
45.0500 0.8247
45.0667 0.8248
45.0833 0.8249
45.1000 0.8250
45.1167 0.8251
45.1333 0.8252
45.1500 0.8252
45.1667 0.8253
45.1833 0.8254
45.2000 0.8255
45.2167 0.8256
45.2333 0.8257
45.2500 0.8258
45.2667 0.8259
45.2833 0.8260
45.3000 0.8261
45.3167 0.8262
45.3333 0.8262
45.3500 0.8263
45.3667 0.8264
45.3833 0.8265
45.4000 0.8266
45.4167 0.8267
45.4333 0.8268
45.4500 0.8269
45.4667 0.8270
45.4833 0.8270
45.5000 0.8271
45.5167 0.8272
45.5333 0.8273
45.5500 0.8274
45.5667 0.8275
45.5833 0.8276
45.6000 0.8277
45.6167 0.8278
45.6333 0.8278
45.6500 0.8279
45.6667 0.8280
45.6833 0.8281
45.7000 0.8282
45.7167 0.8283
45.7333 0.8284
45.7500 0.8285
45.7667 0.8286
45.7833 0.8286
45.8000 0.8287
45.8167 0.8288
45.8333 0.8289
45.8500 0.8290
45.8667 0.8291
45.8833 0.8292
45.9000 0.8293
45.9167 0.8293
45.9333 0.8294
45.9500 0.8295
45.9667 0.8296
45.9833 0.8297
46.0000 0.8298
46.0167 0.8299
46.0333 0.8300
46.0500 0.8300
46.0667 0.8301
46.0833 0.8302
46.1000 0.8303
46.1167 0.8304
46.1333 0.8305
46.1500 0.8306
46.1667 0.8306
46.1833 0.8307
46.2000 0.8308
46.2167 0.8309
46.2333 0.8310
46.2500 0.8311
46.2667 0.8312
46.2833 0.8313
46.3000 0.8313
46.3167 0.8314
46.3333 0.8315
46.3500 0.8316
46.3667 0.8317
46.3833 0.8318
46.4000 0.8319
46.4167 0.8319
46.4333 0.8320
46.4500 0.8321
46.4667 0.8322
46.4833 0.8323
46.5000 0.8324
46.5167 0.8324
46.5333 0.8325
46.5500 0.8326
46.5667 0.8327
46.5833 0.8328
46.6000 0.8329
46.6167 0.8330
46.6333 0.8330
46.6500 0.8331
46.6667 0.8332
46.6833 0.8333
46.7000 0.8334
46.7167 0.8335
46.7333 0.8335
46.7500 0.8336
46.7667 0.8337
46.7833 0.8338
46.8000 0.8339
46.8167 0.8340
46.8333 0.8341
46.8500 0.8341
46.8667 0.8342
46.8833 0.8343
46.9000 0.8344
46.9167 0.8345
46.9333 0.8346
46.9500 0.8346
46.9667 0.8347
46.9833 0.8348
47.0000 0.8349
47.0167 0.8350
47.0333 0.8351
47.0500 0.8351
47.0667 0.8352
47.0833 0.8353
47.1000 0.8354
47.1167 0.8355
47.1333 0.8356
47.1500 0.8356
47.1667 0.8357
47.1833 0.8358
47.2000 0.8359
47.2167 0.8360
47.2333 0.8360
47.2500 0.8361
47.2667 0.8362
47.2833 0.8363
47.3000 0.8364
47.3167 0.8365
47.3333 0.8365
47.3500 0.8366
47.3667 0.8367
47.3833 0.8368
47.4000 0.8369
47.4167 0.8369
47.4333 0.8370
47.4500 0.8371
47.4667 0.8372
47.4833 0.8373
47.5000 0.8374
47.5167 0.8374
47.5333 0.8375
47.5500 0.8376
47.5667 0.8377
47.5833 0.8378
47.6000 0.8378
47.6167 0.8379
47.6333 0.8380
47.6500 0.8381
47.6667 0.8382
47.6833 0.8382
47.7000 0.8383
47.7167 0.8384
47.7333 0.8385
47.7500 0.8386
47.7667 0.8387
47.7833 0.8387
47.8000 0.8388
47.8167 0.8389
47.8333 0.8390
47.8500 0.8391
47.8667 0.8391
47.8833 0.8392
47.9000 0.8393
47.9167 0.8394
47.9333 0.8395
47.9500 0.8395
47.9667 0.8396
47.9833 0.8397
48.0000 0.8398
48.0167 0.8398
48.0333 0.8399
48.0500 0.8400
48.0667 0.8401
48.0833 0.8402
48.1000 0.8402
48.1167 0.8403
48.1333 0.8404
48.1500 0.8405
48.1667 0.8406
48.1833 0.8406
48.2000 0.8407
48.2167 0.8408
48.2333 0.8409
48.2500 0.8410
48.2667 0.8410
48.2833 0.8411
48.3000 0.8412
48.3167 0.8413
48.3333 0.8413
48.3500 0.8414
48.3667 0.8415
48.3833 0.8416
48.4000 0.8417
48.4167 0.8417
48.4333 0.8418
48.4500 0.8419
48.4667 0.8420
48.4833 0.8420
48.5000 0.8421
48.5167 0.8422
48.5333 0.8423
48.5500 0.8424
48.5667 0.8424
48.5833 0.8425
48.6000 0.8426
48.6167 0.8427
48.6333 0.8427
48.6500 0.8428
48.6667 0.8429
48.6833 0.8430
48.7000 0.8431
48.7167 0.8431
48.7333 0.8432
48.7500 0.8433
48.7667 0.8434
48.7833 0.8434
48.8000 0.8435
48.8167 0.8436
48.8333 0.8437
48.8500 0.8437
48.8667 0.8438
48.8833 0.8439
48.9000 0.8440
48.9167 0.8440
48.9333 0.8441
48.9500 0.8442
48.9667 0.8443
48.9833 0.8444
49.0000 0.8444
49.0167 0.8445
49.0333 0.8446
49.0500 0.8447
49.0667 0.8447
49.0833 0.8448
49.1000 0.8449
49.1167 0.8450
49.1333 0.8450
49.1500 0.8451
49.1667 0.8452
49.1833 0.8453
49.2000 0.8453
49.2167 0.8454
49.2333 0.8455
49.2500 0.8456
49.2667 0.8456
49.2833 0.8457
49.3000 0.8458
49.3167 0.8459
49.3333 0.8459
49.3500 0.8460
49.3667 0.8461
49.3833 0.8462
49.4000 0.8462
49.4167 0.8463
49.4333 0.8464
49.4500 0.8465
49.4667 0.8465
49.4833 0.8466
49.5000 0.8467
49.5167 0.8468
49.5333 0.8468
49.5500 0.8469
49.5667 0.8470
49.5833 0.8470
49.6000 0.8471
49.6167 0.8472
49.6333 0.8473
49.6500 0.8473
49.6667 0.8474
49.6833 0.8475
49.7000 0.8476
49.7167 0.8476
49.7333 0.8477
49.7500 0.8478
49.7667 0.8479
49.7833 0.8479
49.8000 0.8480
49.8167 0.8481
49.8333 0.8482
49.8500 0.8482
49.8667 0.8483
49.8833 0.8484
49.9000 0.8484
49.9167 0.8485
49.9333 0.8486
49.9500 0.8487
49.9667 0.8487
49.9833 0.8488
50.0000 0.8489
50.0167 0.8489
50.0333 0.8490
50.0500 0.8491
50.0667 0.8492
50.0833 0.8492
50.1000 0.8493
50.1167 0.8494
50.1333 0.8495
50.1500 0.8495
50.1667 0.8496
50.1833 0.8497
50.2000 0.8497
50.2167 0.8498
50.2333 0.8499
50.2500 0.8500
50.2667 0.8500
50.2833 0.8501
50.3000 0.8502
50.3167 0.8502
50.3333 0.8503
50.3500 0.8504
50.3667 0.8505
50.3833 0.8505
50.4000 0.8506
50.4167 0.8507
50.4333 0.8507
50.4500 0.8508
50.4667 0.8509
50.4833 0.8510
50.5000 0.8510
50.5167 0.8511
50.5333 0.8512
50.5500 0.8512
50.5667 0.8513
50.5833 0.8514
50.6000 0.8514
50.6167 0.8515
50.6333 0.8516
50.6500 0.8517
50.6667 0.8517
50.6833 0.8518
50.7000 0.8519
50.7167 0.8519
50.7333 0.8520
50.7500 0.8521
50.7667 0.8521
50.7833 0.8522
50.8000 0.8523
50.8167 0.8524
50.8333 0.8524
50.8500 0.8525
50.8667 0.8526
50.8833 0.8526
50.9000 0.8527
50.9167 0.8528
50.9333 0.8528
50.9500 0.8529
50.9667 0.8530
50.9833 0.8531
51.0000 0.8531
51.0167 0.8532
51.0333 0.8533
51.0500 0.8533
51.0667 0.8534
51.0833 0.8535
51.1000 0.8535
51.1167 0.8536
51.1333 0.8537
51.1500 0.8537
51.1667 0.8538
51.1833 0.8539
51.2000 0.8539
51.2167 0.8540
51.2333 0.8541
51.2500 0.8542
51.2667 0.8542
51.2833 0.8543
51.3000 0.8544
51.3167 0.8544
51.3333 0.8545
51.3500 0.8546
51.3667 0.8546
51.3833 0.8547
51.4000 0.8548
51.4167 0.8548
51.4333 0.8549
51.4500 0.8550
51.4667 0.8550
51.4833 0.8551
51.5000 0.8552
51.5167 0.8552
51.5333 0.8553
51.5500 0.8554
51.5667 0.8554
51.5833 0.8555
51.6000 0.8556
51.6167 0.8556
51.6333 0.8557
51.6500 0.8558
51.6667 0.8558
51.6833 0.8559
51.7000 0.8560
51.7167 0.8560
51.7333 0.8561
51.7500 0.8562
51.7667 0.8562
51.7833 0.8563
51.8000 0.8564
51.8167 0.8564
51.8333 0.8565
51.8500 0.8566
51.8667 0.8566
51.8833 0.8567
51.9000 0.8568
51.9167 0.8568
51.9333 0.8569
51.9500 0.8570
51.9667 0.8570
51.9833 0.8571
52.0000 0.8572
52.0167 0.8572
52.0333 0.8573
52.0500 0.8574
52.0667 0.8574
52.0833 0.8575
52.1000 0.8576
52.1167 0.8576
52.1333 0.8577
52.1500 0.8578
52.1667 0.8578
52.1833 0.8579
52.2000 0.8580
52.2167 0.8580
52.2333 0.8581
52.2500 0.8581
52.2667 0.8582
52.2833 0.8583
52.3000 0.8583
52.3167 0.8584
52.3333 0.8585
52.3500 0.8585
52.3667 0.8586
52.3833 0.8587
52.4000 0.8587
52.4167 0.8588
52.4333 0.8589
52.4500 0.8589
52.4667 0.8590
52.4833 0.8591
52.5000 0.8591
52.5167 0.8592
52.5333 0.8592
52.5500 0.8593
52.5667 0.8594
52.5833 0.8594
52.6000 0.8595
52.6167 0.8596
52.6333 0.8596
52.6500 0.8597
52.6667 0.8598
52.6833 0.8598
52.7000 0.8599
52.7167 0.8600
52.7333 0.8600
52.7500 0.8601
52.7667 0.8601
52.7833 0.8602
52.8000 0.8603
52.8167 0.8603
52.8333 0.8604
52.8500 0.8605
52.8667 0.8605
52.8833 0.8606
52.9000 0.8606
52.9167 0.8607
52.9333 0.8608
52.9500 0.8608
52.9667 0.8609
52.9833 0.8610
53.0000 0.8610
53.0167 0.8611
53.0333 0.8611
53.0500 0.8612
53.0667 0.8613
53.0833 0.8613
53.1000 0.8614
53.1167 0.8615
53.1333 0.8615
53.1500 0.8616
53.1667 0.8616
53.1833 0.8617
53.2000 0.8618
53.2167 0.8618
53.2333 0.8619
53.2500 0.8620
53.2667 0.8620
53.2833 0.8621
53.3000 0.8621
53.3167 0.8622
53.3333 0.8623
53.3500 0.8623
53.3667 0.8624
53.3833 0.8625
53.4000 0.8625
53.4167 0.8626
53.4333 0.8626
53.4500 0.8627
53.4667 0.8628
53.4833 0.8628
53.5000 0.8629
53.5167 0.8629
53.5333 0.8630
53.5500 0.8631
53.5667 0.8631
53.5833 0.8632
53.6000 0.8633
53.6167 0.8633
53.6333 0.8634
53.6500 0.8634
53.6667 0.8635
53.6833 0.8636
53.7000 0.8636
53.7167 0.8637
53.7333 0.8637
53.7500 0.8638
53.7667 0.8639
53.7833 0.8639
53.8000 0.8640
53.8167 0.8640
53.8333 0.8641
53.8500 0.8642
53.8667 0.8642
53.8833 0.8643
53.9000 0.8643
53.9167 0.8644
53.9333 0.8645
53.9500 0.8645
53.9667 0.8646
53.9833 0.8646
54.0000 0.8647
54.0167 0.8648
54.0333 0.8648
54.0500 0.8649
54.0667 0.8649
54.0833 0.8650
54.1000 0.8651
54.1167 0.8651
54.1333 0.8652
54.1500 0.8652
54.1667 0.8653
54.1833 0.8654
54.2000 0.8654
54.2167 0.8655
54.2333 0.8655
54.2500 0.8656
54.2667 0.8656
54.2833 0.8657
54.3000 0.8658
54.3167 0.8658
54.3333 0.8659
54.3500 0.8659
54.3667 0.8660
54.3833 0.8661
54.4000 0.8661
54.4167 0.8662
54.4333 0.8662
54.4500 0.8663
54.4667 0.8664
54.4833 0.8664
54.5000 0.8665
54.5167 0.8665
54.5333 0.8666
54.5500 0.8666
54.5667 0.8667
54.5833 0.8668
54.6000 0.8668
54.6167 0.8669
54.6333 0.8669
54.6500 0.8670
54.6667 0.8671
54.6833 0.8671
54.7000 0.8672
54.7167 0.8672
54.7333 0.8673
54.7500 0.8673
54.7667 0.8674
54.7833 0.8675
54.8000 0.8675
54.8167 0.8676
54.8333 0.8676
54.8500 0.8677
54.8667 0.8677
54.8833 0.8678
54.9000 0.8679
54.9167 0.8679
54.9333 0.8680
54.9500 0.8680
54.9667 0.8681
54.9833 0.8681
55.0000 0.8682
55.0167 0.8683
55.0333 0.8683
55.0500 0.8684
55.0667 0.8684
55.0833 0.8685
55.1000 0.8685
55.1167 0.8686
55.1333 0.8687
55.1500 0.8687
55.1667 0.8688
55.1833 0.8688
55.2000 0.8689
55.2167 0.8689
55.2333 0.8690
55.2500 0.8690
55.2667 0.8691
55.2833 0.8692
55.3000 0.8692
55.3167 0.8693
55.3333 0.8693
55.3500 0.8694
55.3667 0.8694
55.3833 0.8695
55.4000 0.8696
55.4167 0.8696
55.4333 0.8697
55.4500 0.8697
55.4667 0.8698
55.4833 0.8698
55.5000 0.8699
55.5167 0.8699
55.5333 0.8700
55.5500 0.8701
55.5667 0.8701
55.5833 0.8702
55.6000 0.8702
55.6167 0.8703
55.6333 0.8703
55.6500 0.8704
55.6667 0.8704
55.6833 0.8705
55.7000 0.8705
55.7167 0.8706
55.7333 0.8707
55.7500 0.8707
55.7667 0.8708
55.7833 0.8708
55.8000 0.8709
55.8167 0.8709
55.8333 0.8710
55.8500 0.8710
55.8667 0.8711
55.8833 0.8712
55.9000 0.8712
55.9167 0.8713
55.9333 0.8713
55.9500 0.8714
55.9667 0.8714
55.9833 0.8715
56.0000 0.8715
56.0167 0.8716
56.0333 0.8716
56.0500 0.8717
56.0667 0.8717
56.0833 0.8718
56.1000 0.8719
56.1167 0.8719
56.1333 0.8720
56.1500 0.8720
56.1667 0.8721
56.1833 0.8721
56.2000 0.8722
56.2167 0.8722
56.2333 0.8723
56.2500 0.8723
56.2667 0.8724
56.2833 0.8724
56.3000 0.8725
56.3167 0.8726
56.3333 0.8726
56.3500 0.8727
56.3667 0.8727
56.3833 0.8728
56.4000 0.8728
56.4167 0.8729
56.4333 0.8729
56.4500 0.8730
56.4667 0.8730
56.4833 0.8731
56.5000 0.8731
56.5167 0.8732
56.5333 0.8732
56.5500 0.8733
56.5667 0.8733
56.5833 0.8734
56.6000 0.8735
56.6167 0.8735
56.6333 0.8736
56.6500 0.8736
56.6667 0.8737
56.6833 0.8737
56.7000 0.8738
56.7167 0.8738
56.7333 0.8739
56.7500 0.8739
56.7667 0.8740
56.7833 0.8740
56.8000 0.8741
56.8167 0.8741
56.8333 0.8742
56.8500 0.8742
56.8667 0.8743
56.8833 0.8743
56.9000 0.8744
56.9167 0.8744
56.9333 0.8745
56.9500 0.8745
56.9667 0.8746
56.9833 0.8746
57.0000 0.8747
57.0167 0.8748
57.0333 0.8748
57.0500 0.8749
57.0667 0.8749
57.0833 0.8750
57.1000 0.8750
57.1167 0.8751
57.1333 0.8751
57.1500 0.8752
57.1667 0.8752
57.1833 0.8753
57.2000 0.8753
57.2167 0.8754
57.2333 0.8754
57.2500 0.8755
57.2667 0.8755
57.2833 0.8756
57.3000 0.8756
57.3167 0.8757
57.3333 0.8757
57.3500 0.8758
57.3667 0.8758
57.3833 0.8759
57.4000 0.8759
57.4167 0.8760
57.4333 0.8760
57.4500 0.8761
57.4667 0.8761
57.4833 0.8762
57.5000 0.8762
57.5167 0.8763
57.5333 0.8763
57.5500 0.8764
57.5667 0.8764
57.5833 0.8765
57.6000 0.8765
57.6167 0.8766
57.6333 0.8766
57.6500 0.8767
57.6667 0.8767
57.6833 0.8768
57.7000 0.8768
57.7167 0.8769
57.7333 0.8769
57.7500 0.8770
57.7667 0.8770
57.7833 0.8771
57.8000 0.8771
57.8167 0.8772
57.8333 0.8772
57.8500 0.8773
57.8667 0.8773
57.8833 0.8774
57.9000 0.8774
57.9167 0.8775
57.9333 0.8775
57.9500 0.8776
57.9667 0.8776
57.9833 0.8777
58.0000 0.8777
58.0167 0.8778
58.0333 0.8778
58.0500 0.8779
58.0667 0.8779
58.0833 0.8780
58.1000 0.8780
58.1167 0.8781
58.1333 0.8781
58.1500 0.8782
58.1667 0.8782
58.1833 0.8782
58.2000 0.8783
58.2167 0.8783
58.2333 0.8784
58.2500 0.8784
58.2667 0.8785
58.2833 0.8785
58.3000 0.8786
58.3167 0.8786
58.3333 0.8787
58.3500 0.8787
58.3667 0.8788
58.3833 0.8788
58.4000 0.8789
58.4167 0.8789
58.4333 0.8790
58.4500 0.8790
58.4667 0.8791
58.4833 0.8791
58.5000 0.8792
58.5167 0.8792
58.5333 0.8793
58.5500 0.8793
58.5667 0.8794
58.5833 0.8794
58.6000 0.8794
58.6167 0.8795
58.6333 0.8795
58.6500 0.8796
58.6667 0.8796
58.6833 0.8797
58.7000 0.8797
58.7167 0.8798
58.7333 0.8798
58.7500 0.8799
58.7667 0.8799
58.7833 0.8800
58.8000 0.8800
58.8167 0.8801
58.8333 0.8801
58.8500 0.8802
58.8667 0.8802
58.8833 0.8802
58.9000 0.8803
58.9167 0.8803
58.9333 0.8804
58.9500 0.8804
58.9667 0.8805
58.9833 0.8805
59.0000 0.8806
59.0167 0.8806
59.0333 0.8807
59.0500 0.8807
59.0667 0.8808
59.0833 0.8808
59.1000 0.8809
59.1167 0.8809
59.1333 0.8809
59.1500 0.8810
59.1667 0.8810
59.1833 0.8811
59.2000 0.8811
59.2167 0.8812
59.2333 0.8812
59.2500 0.8813
59.2667 0.8813
59.2833 0.8814
59.3000 0.8814
59.3167 0.8815
59.3333 0.8815
59.3500 0.8815
59.3667 0.8816
59.3833 0.8816
59.4000 0.8817
59.4167 0.8817
59.4333 0.8818
59.4500 0.8818
59.4667 0.8819
59.4833 0.8819
59.5000 0.8820
59.5167 0.8820
59.5333 0.8820
59.5500 0.8821
59.5667 0.8821
59.5833 0.8822
59.6000 0.8822
59.6167 0.8823
59.6333 0.8823
59.6500 0.8824
59.6667 0.8824
59.6833 0.8824
59.7000 0.8825
59.7167 0.8825
59.7333 0.8826
59.7500 0.8826
59.7667 0.8827
59.7833 0.8827
59.8000 0.8828
59.8167 0.8828
59.8333 0.8828
59.8500 0.8829
59.8667 0.8829
59.8833 0.8830
59.9000 0.8830
59.9167 0.8831
59.9333 0.8831
59.9500 0.8832
59.9667 0.8832
59.9833 0.8832
60.0000 0.8833
60.0167 0.8833
60.0333 0.8834
60.0500 0.8834
60.0667 0.8835
60.0833 0.8835
60.1000 0.8836
60.1167 0.8836
60.1333 0.8836
60.1500 0.8837
60.1667 0.8837
60.1833 0.8838
60.2000 0.8838
60.2167 0.8839
60.2333 0.8839
60.2500 0.8839
60.2667 0.8840
60.2833 0.8840
60.3000 0.8841
60.3167 0.8841
60.3333 0.8842
60.3500 0.8842
60.3667 0.8843
60.3833 0.8843
60.4000 0.8843
60.4167 0.8844
60.4333 0.8844
60.4500 0.8845
60.4667 0.8845
60.4833 0.8846
60.5000 0.8846
60.5167 0.8846
60.5333 0.8847
60.5500 0.8847
60.5667 0.8848
60.5833 0.8848
60.6000 0.8849
60.6167 0.8849
60.6333 0.8849
60.6500 0.8850
60.6667 0.8850
60.6833 0.8851
60.7000 0.8851
60.7167 0.8852
60.7333 0.8852
60.7500 0.8852
60.7667 0.8853
60.7833 0.8853
60.8000 0.8854
60.8167 0.8854
60.8333 0.8855
60.8500 0.8855
60.8667 0.8855
60.8833 0.8856
60.9000 0.8856
60.9167 0.8857
60.9333 0.8857
60.9500 0.8857
60.9667 0.8858
60.9833 0.8858
61.0000 0.8859
61.0167 0.8859
61.0333 0.8860
61.0500 0.8860
61.0667 0.8860
61.0833 0.8861
61.1000 0.8861
61.1167 0.8862
61.1333 0.8862
61.1500 0.8862
61.1667 0.8863
61.1833 0.8863
61.2000 0.8864
61.2167 0.8864
61.2333 0.8865
61.2500 0.8865
61.2667 0.8865
61.2833 0.8866
61.3000 0.8866
61.3167 0.8867
61.3333 0.8867
61.3500 0.8867
61.3667 0.8868
61.3833 0.8868
61.4000 0.8869
61.4167 0.8869
61.4333 0.8869
61.4500 0.8870
61.4667 0.8870
61.4833 0.8871
61.5000 0.8871
61.5167 0.8871
61.5333 0.8872
61.5500 0.8872
61.5667 0.8873
61.5833 0.8873
61.6000 0.8874
61.6167 0.8874
61.6333 0.8874
61.6500 0.8875
61.6667 0.8875
61.6833 0.8876
61.7000 0.8876
61.7167 0.8876
61.7333 0.8877
61.7500 0.8877
61.7667 0.8878
61.7833 0.8878
61.8000 0.8878
61.8167 0.8879
61.8333 0.8879
61.8500 0.8880
61.8667 0.8880
61.8833 0.8880
61.9000 0.8881
61.9167 0.8881
61.9333 0.8882
61.9500 0.8882
61.9667 0.8882
61.9833 0.8883
62.0000 0.8883
62.0167 0.8884
62.0333 0.8884
62.0500 0.8884
62.0667 0.8885
62.0833 0.8885
62.1000 0.8886
62.1167 0.8886
62.1333 0.8886
62.1500 0.8887
62.1667 0.8887
62.1833 0.8887
62.2000 0.8888
62.2167 0.8888
62.2333 0.8889
62.2500 0.8889
62.2667 0.8889
62.2833 0.8890
62.3000 0.8890
62.3167 0.8891
62.3333 0.8891
62.3500 0.8891
62.3667 0.8892
62.3833 0.8892
62.4000 0.8893
62.4167 0.8893
62.4333 0.8893
62.4500 0.8894
62.4667 0.8894
62.4833 0.8894
62.5000 0.8895
62.5167 0.8895
62.5333 0.8896
62.5500 0.8896
62.5667 0.8896
62.5833 0.8897
62.6000 0.8897
62.6167 0.8898
62.6333 0.8898
62.6500 0.8898
62.6667 0.8899
62.6833 0.8899
62.7000 0.8899
62.7167 0.8900
62.7333 0.8900
62.7500 0.8901
62.7667 0.8901
62.7833 0.8901
62.8000 0.8902
62.8167 0.8902
62.8333 0.8903
62.8500 0.8903
62.8667 0.8903
62.8833 0.8904
62.9000 0.8904
62.9167 0.8904
62.9333 0.8905
62.9500 0.8905
62.9667 0.8906
62.9833 0.8906
63.0000 0.8906
63.0167 0.8907
63.0333 0.8907
63.0500 0.8907
63.0667 0.8908
63.0833 0.8908
63.1000 0.8909
63.1167 0.8909
63.1333 0.8909
63.1500 0.8910
63.1667 0.8910
63.1833 0.8910
63.2000 0.8911
63.2167 0.8911
63.2333 0.8912
63.2500 0.8912
63.2667 0.8912
63.2833 0.8913
63.3000 0.8913
63.3167 0.8913
63.3333 0.8914
63.3500 0.8914
63.3667 0.8914
63.3833 0.8915
63.4000 0.8915
63.4167 0.8916
63.4333 0.8916
63.4500 0.8916
63.4667 0.8917
63.4833 0.8917
63.5000 0.8917
63.5167 0.8918
63.5333 0.8918
63.5500 0.8919
63.5667 0.8919
63.5833 0.8919
63.6000 0.8920
63.6167 0.8920
63.6333 0.8920
63.6500 0.8921
63.6667 0.8921
63.6833 0.8921
63.7000 0.8922
63.7167 0.8922
63.7333 0.8922
63.7500 0.8923
63.7667 0.8923
63.7833 0.8924
63.8000 0.8924
63.8167 0.8924
63.8333 0.8925
63.8500 0.8925
63.8667 0.8925
63.8833 0.8926
63.9000 0.8926
63.9167 0.8926
63.9333 0.8927
63.9500 0.8927
63.9667 0.8928
63.9833 0.8928
64.0000 0.8928
64.0167 0.8929
64.0333 0.8929
64.0500 0.8929
64.0667 0.8930
64.0833 0.8930
64.1000 0.8930
64.1167 0.8931
64.1333 0.8931
64.1500 0.8931
64.1667 0.8932
64.1833 0.8932
64.2000 0.8932
64.2167 0.8933
64.2333 0.8933
64.2500 0.8934
64.2667 0.8934
64.2833 0.8934
64.3000 0.8935
64.3167 0.8935
64.3333 0.8935
64.3500 0.8936
64.3667 0.8936
64.3833 0.8936
64.4000 0.8937
64.4167 0.8937
64.4333 0.8937
64.4500 0.8938
64.4667 0.8938
64.4833 0.8938
64.5000 0.8939
64.5167 0.8939
64.5333 0.8939
64.5500 0.8940
64.5667 0.8940
64.5833 0.8940
64.6000 0.8941
64.6167 0.8941
64.6333 0.8941
64.6500 0.8942
64.6667 0.8942
64.6833 0.8943
64.7000 0.8943
64.7167 0.8943
64.7333 0.8944
64.7500 0.8944
64.7667 0.8944
64.7833 0.8945
64.8000 0.8945
64.8167 0.8945
64.8333 0.8946
64.8500 0.8946
64.8667 0.8946
64.8833 0.8947
64.9000 0.8947
64.9167 0.8947
64.9333 0.8948
64.9500 0.8948
64.9667 0.8948
64.9833 0.8949
65.0000 0.8949
65.0167 0.8949
65.0333 0.8950
65.0500 0.8950
65.0667 0.8950
65.0833 0.8951
65.1000 0.8951
65.1167 0.8951
65.1333 0.8952
65.1500 0.8952
65.1667 0.8952
65.1833 0.8953
65.2000 0.8953
65.2167 0.8953
65.2333 0.8954
65.2500 0.8954
65.2667 0.8954
65.2833 0.8955
65.3000 0.8955
65.3167 0.8955
65.3333 0.8956
65.3500 0.8956
65.3667 0.8956
65.3833 0.8957
65.4000 0.8957
65.4167 0.8957
65.4333 0.8958
65.4500 0.8958
65.4667 0.8958
65.4833 0.8959
65.5000 0.8959
65.5167 0.8959
65.5333 0.8960
65.5500 0.8960
65.5667 0.8960
65.5833 0.8960
65.6000 0.8961
65.6167 0.8961
65.6333 0.8961
65.6500 0.8962
65.6667 0.8962
65.6833 0.8962
65.7000 0.8963
65.7167 0.8963
65.7333 0.8963
65.7500 0.8964
65.7667 0.8964
65.7833 0.8964
65.8000 0.8965
65.8167 0.8965
65.8333 0.8965
65.8500 0.8966
65.8667 0.8966
65.8833 0.8966
65.9000 0.8967
65.9167 0.8967
65.9333 0.8967
65.9500 0.8968
65.9667 0.8968
65.9833 0.8968
66.0000 0.8969
66.0167 0.8969
66.0333 0.8969
66.0500 0.8969
66.0667 0.8970
66.0833 0.8970
66.1000 0.8970
66.1167 0.8971
66.1333 0.8971
66.1500 0.8971
66.1667 0.8972
66.1833 0.8972
66.2000 0.8972
66.2167 0.8973
66.2333 0.8973
66.2500 0.8973
66.2667 0.8974
66.2833 0.8974
66.3000 0.8974
66.3167 0.8974
66.3333 0.8975
66.3500 0.8975
66.3667 0.8975
66.3833 0.8976
66.4000 0.8976
66.4167 0.8976
66.4333 0.8977
66.4500 0.8977
66.4667 0.8977
66.4833 0.8978
66.5000 0.8978
66.5167 0.8978
66.5333 0.8978
66.5500 0.8979
66.5667 0.8979
66.5833 0.8979
66.6000 0.8980
66.6167 0.8980
66.6333 0.8980
66.6500 0.8981
66.6667 0.8981
66.6833 0.8981
66.7000 0.8982
66.7167 0.8982
66.7333 0.8982
66.7500 0.8982
66.7667 0.8983
66.7833 0.8983
66.8000 0.8983
66.8167 0.8984
66.8333 0.8984
66.8500 0.8984
66.8667 0.8985
66.8833 0.8985
66.9000 0.8985
66.9167 0.8985
66.9333 0.8986
66.9500 0.8986
66.9667 0.8986
66.9833 0.8987
67.0000 0.8987
67.0167 0.8987
67.0333 0.8988
67.0500 0.8988
67.0667 0.8988
67.0833 0.8988
67.1000 0.8989
67.1167 0.8989
67.1333 0.8989
67.1500 0.8990
67.1667 0.8990
67.1833 0.8990
67.2000 0.8991
67.2167 0.8991
67.2333 0.8991
67.2500 0.8991
67.2667 0.8992
67.2833 0.8992
67.3000 0.8992
67.3167 0.8993
67.3333 0.8993
67.3500 0.8993
67.3667 0.8993
67.3833 0.8994
67.4000 0.8994
67.4167 0.8994
67.4333 0.8995
67.4500 0.8995
67.4667 0.8995
67.4833 0.8996
67.5000 0.8996
67.5167 0.8996
67.5333 0.8996
67.5500 0.8997
67.5667 0.8997
67.5833 0.8997
67.6000 0.8998
67.6167 0.8998
67.6333 0.8998
67.6500 0.8998
67.6667 0.8999
67.6833 0.8999
67.7000 0.8999
67.7167 0.9000
67.7333 0.9000
67.7500 0.9000
67.7667 0.9000
67.7833 0.9001
67.8000 0.9001
67.8167 0.9001
67.8333 0.9002
67.8500 0.9002
67.8667 0.9002
67.8833 0.9002
67.9000 0.9003
67.9167 0.9003
67.9333 0.9003
67.9500 0.9004
67.9667 0.9004
67.9833 0.9004
68.0000 0.9004
68.0167 0.9005
68.0333 0.9005
68.0500 0.9005
68.0667 0.9005
68.0833 0.9006
68.1000 0.9006
68.1167 0.9006
68.1333 0.9007
68.1500 0.9007
68.1667 0.9007
68.1833 0.9007
68.2000 0.9008
68.2167 0.9008
68.2333 0.9008
68.2500 0.9009
68.2667 0.9009
68.2833 0.9009
68.3000 0.9009
68.3167 0.9010
68.3333 0.9010
68.3500 0.9010
68.3667 0.9010
68.3833 0.9011
68.4000 0.9011
68.4167 0.9011
68.4333 0.9012
68.4500 0.9012
68.4667 0.9012
68.4833 0.9012
68.5000 0.9013
68.5167 0.9013
68.5333 0.9013
68.5500 0.9014
68.5667 0.9014
68.5833 0.9014
68.6000 0.9014
68.6167 0.9015
68.6333 0.9015
68.6500 0.9015
68.6667 0.9015
68.6833 0.9016
68.7000 0.9016
68.7167 0.9016
68.7333 0.9016
68.7500 0.9017
68.7667 0.9017
68.7833 0.9017
68.8000 0.9018
68.8167 0.9018
68.8333 0.9018
68.8500 0.9018
68.8667 0.9019
68.8833 0.9019
68.9000 0.9019
68.9167 0.9019
68.9333 0.9020
68.9500 0.9020
68.9667 0.9020
68.9833 0.9020
69.0000 0.9021
69.0167 0.9021
69.0333 0.9021
69.0500 0.9022
69.0667 0.9022
69.0833 0.9022
69.1000 0.9022
69.1167 0.9023
69.1333 0.9023
69.1500 0.9023
69.1667 0.9023
69.1833 0.9024
69.2000 0.9024
69.2167 0.9024
69.2333 0.9024
69.2500 0.9025
69.2667 0.9025
69.2833 0.9025
69.3000 0.9025
69.3167 0.9026
69.3333 0.9026
69.3500 0.9026
69.3667 0.9027
69.3833 0.9027
69.4000 0.9027
69.4167 0.9027
69.4333 0.9028
69.4500 0.9028
69.4667 0.9028
69.4833 0.9028
69.5000 0.9029
69.5167 0.9029
69.5333 0.9029
69.5500 0.9029
69.5667 0.9030
69.5833 0.9030
69.6000 0.9030
69.6167 0.9030
69.6333 0.9031
69.6500 0.9031
69.6667 0.9031
69.6833 0.9031
69.7000 0.9032
69.7167 0.9032
69.7333 0.9032
69.7500 0.9032
69.7667 0.9033
69.7833 0.9033
69.8000 0.9033
69.8167 0.9033
69.8333 0.9034
69.8500 0.9034
69.8667 0.9034
69.8833 0.9034
69.9000 0.9035
69.9167 0.9035
69.9333 0.9035
69.9500 0.9035
69.9667 0.9036
69.9833 0.9036
70.0000 0.9036
70.0167 0.9036
70.0333 0.9037
70.0500 0.9037
70.0667 0.9037
70.0833 0.9037
70.1000 0.9038
70.1167 0.9038
70.1333 0.9038
70.1500 0.9038
70.1667 0.9039
70.1833 0.9039
70.2000 0.9039
70.2167 0.9039
70.2333 0.9040
70.2500 0.9040
70.2667 0.9040
70.2833 0.9040
70.3000 0.9041
70.3167 0.9041
70.3333 0.9041
70.3500 0.9041
70.3667 0.9042
70.3833 0.9042
70.4000 0.9042
70.4167 0.9042
70.4333 0.9043
70.4500 0.9043
70.4667 0.9043
70.4833 0.9043
70.5000 0.9043
70.5167 0.9044
70.5333 0.9044
70.5500 0.9044
70.5667 0.9044
70.5833 0.9045
70.6000 0.9045
70.6167 0.9045
70.6333 0.9045
70.6500 0.9046
70.6667 0.9046
70.6833 0.9046
70.7000 0.9046
70.7167 0.9047
70.7333 0.9047
70.7500 0.9047
70.7667 0.9047
70.7833 0.9048
70.8000 0.9048
70.8167 0.9048
70.8333 0.9048
70.8500 0.9048
70.8667 0.9049
70.8833 0.9049
70.9000 0.9049
70.9167 0.9049
70.9333 0.9050
70.9500 0.9050
70.9667 0.9050
70.9833 0.9050
71.0000 0.9051
71.0167 0.9051
71.0333 0.9051
71.0500 0.9051
71.0667 0.9052
71.0833 0.9052
71.1000 0.9052
71.1167 0.9052
71.1333 0.9052
71.1500 0.9053
71.1667 0.9053
71.1833 0.9053
71.2000 0.9053
71.2167 0.9054
71.2333 0.9054
71.2500 0.9054
71.2667 0.9054
71.2833 0.9055
71.3000 0.9055
71.3167 0.9055
71.3333 0.9055
71.3500 0.9055
71.3667 0.9056
71.3833 0.9056
71.4000 0.9056
71.4167 0.9056
71.4333 0.9057
71.4500 0.9057
71.4667 0.9057
71.4833 0.9057
71.5000 0.9057
71.5167 0.9058
71.5333 0.9058
71.5500 0.9058
71.5667 0.9058
71.5833 0.9059
71.6000 0.9059
71.6167 0.9059
71.6333 0.9059
71.6500 0.9059
71.6667 0.9060
71.6833 0.9060
71.7000 0.9060
71.7167 0.9060
71.7333 0.9061
71.7500 0.9061
71.7667 0.9061
71.7833 0.9061
71.8000 0.9061
71.8167 0.9062
71.8333 0.9062
71.8500 0.9062
71.8667 0.9062
71.8833 0.9063
71.9000 0.9063
71.9167 0.9063
71.9333 0.9063
71.9500 0.9063
71.9667 0.9064
71.9833 0.9064
72.0000 0.9064
72.0167 0.9064
72.0333 0.9065
72.0500 0.9065
72.0667 0.9065
72.0833 0.9065
72.1000 0.9065
72.1167 0.9066
72.1333 0.9066
72.1500 0.9066
72.1667 0.9066
72.1833 0.9067
72.2000 0.9067
72.2167 0.9067
72.2333 0.9067
72.2500 0.9067
72.2667 0.9068
72.2833 0.9068
72.3000 0.9068
72.3167 0.9068
72.3333 0.9068
72.3500 0.9069
72.3667 0.9069
72.3833 0.9069
72.4000 0.9069
72.4167 0.9069
72.4333 0.9070
72.4500 0.9070
72.4667 0.9070
72.4833 0.9070
72.5000 0.9071
72.5167 0.9071
72.5333 0.9071
72.5500 0.9071
72.5667 0.9071
72.5833 0.9072
72.6000 0.9072
72.6167 0.9072
72.6333 0.9072
72.6500 0.9072
72.6667 0.9073
72.6833 0.9073
72.7000 0.9073
72.7167 0.9073
72.7333 0.9073
72.7500 0.9074
72.7667 0.9074
72.7833 0.9074
72.8000 0.9074
72.8167 0.9075
72.8333 0.9075
72.8500 0.9075
72.8667 0.9075
72.8833 0.9075
72.9000 0.9076
72.9167 0.9076
72.9333 0.9076
72.9500 0.9076
72.9667 0.9076
72.9833 0.9077
73.0000 0.9077
73.0167 0.9077
73.0333 0.9077
73.0500 0.9077
73.0667 0.9078
73.0833 0.9078
73.1000 0.9078
73.1167 0.9078
73.1333 0.9078
73.1500 0.9079
73.1667 0.9079
73.1833 0.9079
73.2000 0.9079
73.2167 0.9079
73.2333 0.9080
73.2500 0.9080
73.2667 0.9080
73.2833 0.9080
73.3000 0.9080
73.3167 0.9081
73.3333 0.9081
73.3500 0.9081
73.3667 0.9081
73.3833 0.9081
73.4000 0.9082
73.4167 0.9082
73.4333 0.9082
73.4500 0.9082
73.4667 0.9082
73.4833 0.9083
73.5000 0.9083
73.5167 0.9083
73.5333 0.9083
73.5500 0.9083
73.5667 0.9084
73.5833 0.9084
73.6000 0.9084
73.6167 0.9084
73.6333 0.9084
73.6500 0.9085
73.6667 0.9085
73.6833 0.9085
73.7000 0.9085
73.7167 0.9085
73.7333 0.9086
73.7500 0.9086
73.7667 0.9086
73.7833 0.9086
73.8000 0.9086
73.8167 0.9086
73.8333 0.9087
73.8500 0.9087
73.8667 0.9087
73.8833 0.9087
73.9000 0.9087
73.9167 0.9088
73.9333 0.9088
73.9500 0.9088
73.9667 0.9088
73.9833 0.9088
74.0000 0.9089
74.0167 0.9089
74.0333 0.9089
74.0500 0.9089
74.0667 0.9089
74.0833 0.9090
74.1000 0.9090
74.1167 0.9090
74.1333 0.9090
74.1500 0.9090
74.1667 0.9090
74.1833 0.9091
74.2000 0.9091
74.2167 0.9091
74.2333 0.9091
74.2500 0.9091
74.2667 0.9092
74.2833 0.9092
74.3000 0.9092
74.3167 0.9092
74.3333 0.9092
74.3500 0.9093
74.3667 0.9093
74.3833 0.9093
74.4000 0.9093
74.4167 0.9093
74.4333 0.9093
74.4500 0.9094
74.4667 0.9094
74.4833 0.9094
74.5000 0.9094
74.5167 0.9094
74.5333 0.9095
74.5500 0.9095
74.5667 0.9095
74.5833 0.9095
74.6000 0.9095
74.6167 0.9095
74.6333 0.9096
74.6500 0.9096
74.6667 0.9096
74.6833 0.9096
74.7000 0.9096
74.7167 0.9097
74.7333 0.9097
74.7500 0.9097
74.7667 0.9097
74.7833 0.9097
74.8000 0.9097
74.8167 0.9098
74.8333 0.9098
74.8500 0.9098
74.8667 0.9098
74.8833 0.9098
74.9000 0.9099
74.9167 0.9099
74.9333 0.9099
74.9500 0.9099
74.9667 0.9099
74.9833 0.9099
75.0000 0.9100
75.0167 0.9100
75.0333 0.9100
75.0500 0.9100
75.0667 0.9100
75.0833 0.9100
75.1000 0.9101
75.1167 0.9101
75.1333 0.9101
75.1500 0.9101
75.1667 0.9101
75.1833 0.9102
75.2000 0.9102
75.2167 0.9102
75.2333 0.9102
75.2500 0.9102
75.2667 0.9102
75.2833 0.9103
75.3000 0.9103
75.3167 0.9103
75.3333 0.9103
75.3500 0.9103
75.3667 0.9103
75.3833 0.9104
75.4000 0.9104
75.4167 0.9104
75.4333 0.9104
75.4500 0.9104
75.4667 0.9104
75.4833 0.9105
75.5000 0.9105
75.5167 0.9105
75.5333 0.9105
75.5500 0.9105
75.5667 0.9105
75.5833 0.9106
75.6000 0.9106
75.6167 0.9106
75.6333 0.9106
75.6500 0.9106
75.6667 0.9106
75.6833 0.9107
75.7000 0.9107
75.7167 0.9107
75.7333 0.9107
75.7500 0.9107
75.7667 0.9107
75.7833 0.9108
75.8000 0.9108
75.8167 0.9108
75.8333 0.9108
75.8500 0.9108
75.8667 0.9108
75.8833 0.9109
75.9000 0.9109
75.9167 0.9109
75.9333 0.9109
75.9500 0.9109
75.9667 0.9109
75.9833 0.9110
76.0000 0.9110
76.0167 0.9110
76.0333 0.9110
76.0500 0.9110
76.0667 0.9110
76.0833 0.9111
76.1000 0.9111
76.1167 0.9111
76.1333 0.9111
76.1500 0.9111
76.1667 0.9111
76.1833 0.9112
76.2000 0.9112
76.2167 0.9112
76.2333 0.9112
76.2500 0.9112
76.2667 0.9112
76.2833 0.9113
76.3000 0.9113
76.3167 0.9113
76.3333 0.9113
76.3500 0.9113
76.3667 0.9113
76.3833 0.9114
76.4000 0.9114
76.4167 0.9114
76.4333 0.9114
76.4500 0.9114
76.4667 0.9114
76.4833 0.9114
76.5000 0.9115
76.5167 0.9115
76.5333 0.9115
76.5500 0.9115
76.5667 0.9115
76.5833 0.9115
76.6000 0.9116
76.6167 0.9116
76.6333 0.9116
76.6500 0.9116
76.6667 0.9116
76.6833 0.9116
76.7000 0.9117
76.7167 0.9117
76.7333 0.9117
76.7500 0.9117
76.7667 0.9117
76.7833 0.9117
76.8000 0.9117
76.8167 0.9118
76.8333 0.9118
76.8500 0.9118
76.8667 0.9118
76.8833 0.9118
76.9000 0.9118
76.9167 0.9119
76.9333 0.9119
76.9500 0.9119
76.9667 0.9119
76.9833 0.9119
77.0000 0.9119
77.0167 0.9119
77.0333 0.9120
77.0500 0.9120
77.0667 0.9120
77.0833 0.9120
77.1000 0.9120
77.1167 0.9120
77.1333 0.9120
77.1500 0.9121
77.1667 0.9121
77.1833 0.9121
77.2000 0.9121
77.2167 0.9121
77.2333 0.9121
77.2500 0.9122
77.2667 0.9122
77.2833 0.9122
77.3000 0.9122
77.3167 0.9122
77.3333 0.9122
77.3500 0.9122
77.3667 0.9123
77.3833 0.9123
77.4000 0.9123
77.4167 0.9123
77.4333 0.9123
77.4500 0.9123
77.4667 0.9123
77.4833 0.9124
77.5000 0.9124
77.5167 0.9124
77.5333 0.9124
77.5500 0.9124
77.5667 0.9124
77.5833 0.9124
77.6000 0.9125
77.6167 0.9125
77.6333 0.9125
77.6500 0.9125
77.6667 0.9125
77.6833 0.9125
77.7000 0.9125
77.7167 0.9126
77.7333 0.9126
77.7500 0.9126
77.7667 0.9126
77.7833 0.9126
77.8000 0.9126
77.8167 0.9126
77.8333 0.9127
77.8500 0.9127
77.8667 0.9127
77.8833 0.9127
77.9000 0.9127
77.9167 0.9127
77.9333 0.9127
77.9500 0.9128
77.9667 0.9128
77.9833 0.9128
78.0000 0.9128
78.0167 0.9128
78.0333 0.9128
78.0500 0.9128
78.0667 0.9129
78.0833 0.9129
78.1000 0.9129
78.1167 0.9129
78.1333 0.9129
78.1500 0.9129
78.1667 0.9129
78.1833 0.9130
78.2000 0.9130
78.2167 0.9130
78.2333 0.9130
78.2500 0.9130
78.2667 0.9130
78.2833 0.9130
78.3000 0.9130
78.3167 0.9131
78.3333 0.9131
78.3500 0.9131
78.3667 0.9131
78.3833 0.9131
78.4000 0.9131
78.4167 0.9131
78.4333 0.9132
78.4500 0.9132
78.4667 0.9132
78.4833 0.9132
78.5000 0.9132
78.5167 0.9132
78.5333 0.9132
78.5500 0.9133
78.5667 0.9133
78.5833 0.9133
78.6000 0.9133
78.6167 0.9133
78.6333 0.9133
78.6500 0.9133
78.6667 0.9133
78.6833 0.9134
78.7000 0.9134
78.7167 0.9134
78.7333 0.9134
78.7500 0.9134
78.7667 0.9134
78.7833 0.9134
78.8000 0.9134
78.8167 0.9135
78.8333 0.9135
78.8500 0.9135
78.8667 0.9135
78.8833 0.9135
78.9000 0.9135
78.9167 0.9135
78.9333 0.9136
78.9500 0.9136
78.9667 0.9136
78.9833 0.9136
79.0000 0.9136
79.0167 0.9136
79.0333 0.9136
79.0500 0.9136
79.0667 0.9137
79.0833 0.9137
79.1000 0.9137
79.1167 0.9137
79.1333 0.9137
79.1500 0.9137
79.1667 0.9137
79.1833 0.9137
79.2000 0.9138
79.2167 0.9138
79.2333 0.9138
79.2500 0.9138
79.2667 0.9138
79.2833 0.9138
79.3000 0.9138
79.3167 0.9138
79.3333 0.9139
79.3500 0.9139
79.3667 0.9139
79.3833 0.9139
79.4000 0.9139
79.4167 0.9139
79.4333 0.9139
79.4500 0.9139
79.4667 0.9140
79.4833 0.9140
79.5000 0.9140
79.5167 0.9140
79.5333 0.9140
79.5500 0.9140
79.5667 0.9140
79.5833 0.9140
79.6000 0.9141
79.6167 0.9141
79.6333 0.9141
79.6500 0.9141
79.6667 0.9141
79.6833 0.9141
79.7000 0.9141
79.7167 0.9141
79.7333 0.9142
79.7500 0.9142
79.7667 0.9142
79.7833 0.9142
79.8000 0.9142
79.8167 0.9142
79.8333 0.9142
79.8500 0.9142
79.8667 0.9142
79.8833 0.9143
79.9000 0.9143
79.9167 0.9143
79.9333 0.9143
79.9500 0.9143
79.9667 0.9143
79.9833 0.9143
80.0000 0.9143
80.0167 0.9144
80.0333 0.9144
80.0500 0.9144
80.0667 0.9144
80.0833 0.9144
80.1000 0.9144
80.1167 0.9144
80.1333 0.9144
80.1500 0.9144
80.1667 0.9145
80.1833 0.9145
80.2000 0.9145
80.2167 0.9145
80.2333 0.9145
80.2500 0.9145
80.2667 0.9145
80.2833 0.9145
80.3000 0.9146
80.3167 0.9146
80.3333 0.9146
80.3500 0.9146
80.3667 0.9146
80.3833 0.9146
80.4000 0.9146
80.4167 0.9146
80.4333 0.9146
80.4500 0.9147
80.4667 0.9147
80.4833 0.9147
80.5000 0.9147
80.5167 0.9147
80.5333 0.9147
80.5500 0.9147
80.5667 0.9147
80.5833 0.9147
80.6000 0.9148
80.6167 0.9148
80.6333 0.9148
80.6500 0.9148
80.6667 0.9148
80.6833 0.9148
80.7000 0.9148
80.7167 0.9148
80.7333 0.9148
80.7500 0.9149
80.7667 0.9149
80.7833 0.9149
80.8000 0.9149
80.8167 0.9149
80.8333 0.9149
80.8500 0.9149
80.8667 0.9149
80.8833 0.9149
80.9000 0.9150
80.9167 0.9150
80.9333 0.9150
80.9500 0.9150
80.9667 0.9150
80.9833 0.9150
81.0000 0.9150
81.0167 0.9150
81.0333 0.9150
81.0500 0.9150
81.0667 0.9151
81.0833 0.9151
81.1000 0.9151
81.1167 0.9151
81.1333 0.9151
81.1500 0.9151
81.1667 0.9151
81.1833 0.9151
81.2000 0.9151
81.2167 0.9152
81.2333 0.9152
81.2500 0.9152
81.2667 0.9152
81.2833 0.9152
81.3000 0.9152
81.3167 0.9152
81.3333 0.9152
81.3500 0.9152
81.3667 0.9152
81.3833 0.9153
81.4000 0.9153
81.4167 0.9153
81.4333 0.9153
81.4500 0.9153
81.4667 0.9153
81.4833 0.9153
81.5000 0.9153
81.5167 0.9153
81.5333 0.9153
81.5500 0.9154
81.5667 0.9154
81.5833 0.9154
81.6000 0.9154
81.6167 0.9154
81.6333 0.9154
81.6500 0.9154
81.6667 0.9154
81.6833 0.9154
81.7000 0.9155
81.7167 0.9155
81.7333 0.9155
81.7500 0.9155
81.7667 0.9155
81.7833 0.9155
81.8000 0.9155
81.8167 0.9155
81.8333 0.9155
81.8500 0.9155
81.8667 0.9155
81.8833 0.9156
81.9000 0.9156
81.9167 0.9156
81.9333 0.9156
81.9500 0.9156
81.9667 0.9156
81.9833 0.9156
82.0000 0.9156
82.0167 0.9156
82.0333 0.9156
82.0500 0.9157
82.0667 0.9157
82.0833 0.9157
82.1000 0.9157
82.1167 0.9157
82.1333 0.9157
82.1500 0.9157
82.1667 0.9157
82.1833 0.9157
82.2000 0.9157
82.2167 0.9158
82.2333 0.9158
82.2500 0.9158
82.2667 0.9158
82.2833 0.9158
82.3000 0.9158
82.3167 0.9158
82.3333 0.9158
82.3500 0.9158
82.3667 0.9158
82.3833 0.9158
82.4000 0.9159
82.4167 0.9159
82.4333 0.9159
82.4500 0.9159
82.4667 0.9159
82.4833 0.9159
82.5000 0.9159
82.5167 0.9159
82.5333 0.9159
82.5500 0.9159
82.5667 0.9159
82.5833 0.9160
82.6000 0.9160
82.6167 0.9160
82.6333 0.9160
82.6500 0.9160
82.6667 0.9160
82.6833 0.9160
82.7000 0.9160
82.7167 0.9160
82.7333 0.9160
82.7500 0.9160
82.7667 0.9161
82.7833 0.9161
82.8000 0.9161
82.8167 0.9161
82.8333 0.9161
82.8500 0.9161
82.8667 0.9161
82.8833 0.9161
82.9000 0.9161
82.9167 0.9161
82.9333 0.9161
82.9500 0.9162
82.9667 0.9162
82.9833 0.9162
83.0000 0.9162
83.0167 0.9162
83.0333 0.9162
83.0500 0.9162
83.0667 0.9162
83.0833 0.9162
83.1000 0.9162
83.1167 0.9162
83.1333 0.9162
83.1500 0.9163
83.1667 0.9163
83.1833 0.9163
83.2000 0.9163
83.2167 0.9163
83.2333 0.9163
83.2500 0.9163
83.2667 0.9163
83.2833 0.9163
83.3000 0.9163
83.3167 0.9163
83.3333 0.9163
83.3500 0.9164
83.3667 0.9164
83.3833 0.9164
83.4000 0.9164
83.4167 0.9164
83.4333 0.9164
83.4500 0.9164
83.4667 0.9164
83.4833 0.9164
83.5000 0.9164
83.5167 0.9164
83.5333 0.9164
83.5500 0.9165
83.5667 0.9165
83.5833 0.9165
83.6000 0.9165
83.6167 0.9165
83.6333 0.9165
83.6500 0.9165
83.6667 0.9165
83.6833 0.9165
83.7000 0.9165
83.7167 0.9165
83.7333 0.9165
83.7500 0.9166
83.7667 0.9166
83.7833 0.9166
83.8000 0.9166
83.8167 0.9166
83.8333 0.9166
83.8500 0.9166
83.8667 0.9166
83.8833 0.9166
83.9000 0.9166
83.9167 0.9166
83.9333 0.9166
83.9500 0.9166
83.9667 0.9167
83.9833 0.9167
84.0000 0.9167
84.0167 0.9167
84.0333 0.9167
84.0500 0.9167
84.0667 0.9167
84.0833 0.9167
84.1000 0.9167
84.1167 0.9167
84.1333 0.9167
84.1500 0.9167
84.1667 0.9167
84.1833 0.9168
84.2000 0.9168
84.2167 0.9168
84.2333 0.9168
84.2500 0.9168
84.2667 0.9168
84.2833 0.9168
84.3000 0.9168
84.3167 0.9168
84.3333 0.9168
84.3500 0.9168
84.3667 0.9168
84.3833 0.9168
84.4000 0.9169
84.4167 0.9169
84.4333 0.9169
84.4500 0.9169
84.4667 0.9169
84.4833 0.9169
84.5000 0.9169
84.5167 0.9169
84.5333 0.9169
84.5500 0.9169
84.5667 0.9169
84.5833 0.9169
84.6000 0.9169
84.6167 0.9170
84.6333 0.9170
84.6500 0.9170
84.6667 0.9170
84.6833 0.9170
84.7000 0.9170
84.7167 0.9170
84.7333 0.9170
84.7500 0.9170
84.7667 0.9170
84.7833 0.9170
84.8000 0.9170
84.8167 0.9170
84.8333 0.9170
84.8500 0.9170
84.8667 0.9171
84.8833 0.9171
84.9000 0.9171
84.9167 0.9171
84.9333 0.9171
84.9500 0.9171
84.9667 0.9171
84.9833 0.9171
85.0000 0.9171
85.0167 0.9171
85.0333 0.9171
85.0500 0.9171
85.0667 0.9171
85.0833 0.9171
85.1000 0.9172
85.1167 0.9172
85.1333 0.9172
85.1500 0.9172
85.1667 0.9172
85.1833 0.9172
85.2000 0.9172
85.2167 0.9172
85.2333 0.9172
85.2500 0.9172
85.2667 0.9172
85.2833 0.9172
85.3000 0.9172
85.3167 0.9172
85.3333 0.9172
85.3500 0.9173
85.3667 0.9173
85.3833 0.9173
85.4000 0.9173
85.4167 0.9173
85.4333 0.9173
85.4500 0.9173
85.4667 0.9173
85.4833 0.9173
85.5000 0.9173
85.5167 0.9173
85.5333 0.9173
85.5500 0.9173
85.5667 0.9173
85.5833 0.9173
85.6000 0.9173
85.6167 0.9174
85.6333 0.9174
85.6500 0.9174
85.6667 0.9174
85.6833 0.9174
85.7000 0.9174
85.7167 0.9174
85.7333 0.9174
85.7500 0.9174
85.7667 0.9174
85.7833 0.9174
85.8000 0.9174
85.8167 0.9174
85.8333 0.9174
85.8500 0.9174
85.8667 0.9174
85.8833 0.9175
85.9000 0.9175
85.9167 0.9175
85.9333 0.9175
85.9500 0.9175
85.9667 0.9175
85.9833 0.9175
86.0000 0.9175
86.0167 0.9175
86.0333 0.9175
86.0500 0.9175
86.0667 0.9175
86.0833 0.9175
86.1000 0.9175
86.1167 0.9175
86.1333 0.9175
86.1500 0.9176
86.1667 0.9176
86.1833 0.9176
86.2000 0.9176
86.2167 0.9176
86.2333 0.9176
86.2500 0.9176
86.2667 0.9176
86.2833 0.9176
86.3000 0.9176
86.3167 0.9176
86.3333 0.9176
86.3500 0.9176
86.3667 0.9176
86.3833 0.9176
86.4000 0.9176
86.4167 0.9176
86.4333 0.9176
86.4500 0.9177
86.4667 0.9177
86.4833 0.9177
86.5000 0.9177
86.5167 0.9177
86.5333 0.9177
86.5500 0.9177
86.5667 0.9177
86.5833 0.9177
86.6000 0.9177
86.6167 0.9177
86.6333 0.9177
86.6500 0.9177
86.6667 0.9177
86.6833 0.9177
86.7000 0.9177
86.7167 0.9177
86.7333 0.9177
86.7500 0.9178
86.7667 0.9178
86.7833 0.9178
86.8000 0.9178
86.8167 0.9178
86.8333 0.9178
86.8500 0.9178
86.8667 0.9178
86.8833 0.9178
86.9000 0.9178
86.9167 0.9178
86.9333 0.9178
86.9500 0.9178
86.9667 0.9178
86.9833 0.9178
87.0000 0.9178
87.0167 0.9178
87.0333 0.9178
87.0500 0.9178
87.0667 0.9179
87.0833 0.9179
87.1000 0.9179
87.1167 0.9179
87.1333 0.9179
87.1500 0.9179
87.1667 0.9179
87.1833 0.9179
87.2000 0.9179
87.2167 0.9179
87.2333 0.9179
87.2500 0.9179
87.2667 0.9179
87.2833 0.9179
87.3000 0.9179
87.3167 0.9179
87.3333 0.9179
87.3500 0.9179
87.3667 0.9179
87.3833 0.9179
87.4000 0.9180
87.4167 0.9180
87.4333 0.9180
87.4500 0.9180
87.4667 0.9180
87.4833 0.9180
87.5000 0.9180
87.5167 0.9180
87.5333 0.9180
87.5500 0.9180
87.5667 0.9180
87.5833 0.9180
87.6000 0.9180
87.6167 0.9180
87.6333 0.9180
87.6500 0.9180
87.6667 0.9180
87.6833 0.9180
87.7000 0.9180
87.7167 0.9180
87.7333 0.9180
87.7500 0.9181
87.7667 0.9181
87.7833 0.9181
87.8000 0.9181
87.8167 0.9181
87.8333 0.9181
87.8500 0.9181
87.8667 0.9181
87.8833 0.9181
87.9000 0.9181
87.9167 0.9181
87.9333 0.9181
87.9500 0.9181
87.9667 0.9181
87.9833 0.9181
88.0000 0.9181
88.0167 0.9181
88.0333 0.9181
88.0500 0.9181
88.0667 0.9181
88.0833 0.9181
88.1000 0.9181
88.1167 0.9181
88.1333 0.9182
88.1500 0.9182
88.1667 0.9182
88.1833 0.9182
88.2000 0.9182
88.2167 0.9182
88.2333 0.9182
88.2500 0.9182
88.2667 0.9182
88.2833 0.9182
88.3000 0.9182
88.3167 0.9182
88.3333 0.9182
88.3500 0.9182
88.3667 0.9182
88.3833 0.9182
88.4000 0.9182
88.4167 0.9182
88.4333 0.9182
88.4500 0.9182
88.4667 0.9182
88.4833 0.9182
88.5000 0.9182
88.5167 0.9182
88.5333 0.9183
88.5500 0.9183
88.5667 0.9183
88.5833 0.9183
88.6000 0.9183
88.6167 0.9183
88.6333 0.9183
88.6500 0.9183
88.6667 0.9183
88.6833 0.9183
88.7000 0.9183
88.7167 0.9183
88.7333 0.9183
88.7500 0.9183
88.7667 0.9183
88.7833 0.9183
88.8000 0.9183
88.8167 0.9183
88.8333 0.9183
88.8500 0.9183
88.8667 0.9183
88.8833 0.9183
88.9000 0.9183
88.9167 0.9183
88.9333 0.9183
88.9500 0.9183
88.9667 0.9184
88.9833 0.9184
89.0000 0.9184
89.0167 0.9184
89.0333 0.9184
89.0500 0.9184
89.0667 0.9184
89.0833 0.9184
89.1000 0.9184
89.1167 0.9184
89.1333 0.9184
89.1500 0.9184
89.1667 0.9184
89.1833 0.9184
89.2000 0.9184
89.2167 0.9184
89.2333 0.9184
89.2500 0.9184
89.2667 0.9184
89.2833 0.9184
89.3000 0.9184
89.3167 0.9184
89.3333 0.9184
89.3500 0.9184
89.3667 0.9184
89.3833 0.9184
89.4000 0.9184
89.4167 0.9184
89.4333 0.9184
89.4500 0.9185
89.4667 0.9185
89.4833 0.9185
89.5000 0.9185
89.5167 0.9185
89.5333 0.9185
89.5500 0.9185
89.5667 0.9185
89.5833 0.9185
89.6000 0.9185
89.6167 0.9185
89.6333 0.9185
89.6500 0.9185
89.6667 0.9185
89.6833 0.9185
89.7000 0.9185
89.7167 0.9185
89.7333 0.9185
89.7500 0.9185
89.7667 0.9185
89.7833 0.9185
89.8000 0.9185
89.8167 0.9185
89.8333 0.9185
89.8500 0.9185
89.8667 0.9185
89.8833 0.9185
89.9000 0.9185
89.9167 0.9185
89.9333 0.9185
89.9500 0.9185
89.9667 0.9185
89.9833 0.9185
90.0000 0.9186
90.0167 0.9186
90.0333 0.9186
90.0500 0.9186
90.0667 0.9186
90.0833 0.9186
90.1000 0.9186
90.1167 0.9186
90.1333 0.9186
90.1500 0.9186
90.1667 0.9186
90.1833 0.9186
90.2000 0.9186
90.2167 0.9186
90.2333 0.9186
90.2500 0.9186
90.2667 0.9186
90.2833 0.9186
90.3000 0.9186
90.3167 0.9186
90.3333 0.9186
90.3500 0.9186
90.3667 0.9186
90.3833 0.9186
90.4000 0.9186
90.4167 0.9186
90.4333 0.9186
90.4500 0.9186
90.4667 0.9186
90.4833 0.9186
90.5000 0.9186
90.5167 0.9186
90.5333 0.9186
90.5500 0.9186
90.5667 0.9186
90.5833 0.9186
90.6000 0.9186
90.6167 0.9186
90.6333 0.9187
90.6500 0.9187
90.6667 0.9187
90.6833 0.9187
90.7000 0.9187
90.7167 0.9187
90.7333 0.9187
90.7500 0.9187
90.7667 0.9187
90.7833 0.9187
90.8000 0.9187
90.8167 0.9187
90.8333 0.9187
90.8500 0.9187
90.8667 0.9187
90.8833 0.9187
90.9000 0.9187
90.9167 0.9187
90.9333 0.9187
90.9500 0.9187
90.9667 0.9187
90.9833 0.9187
91.0000 0.9187
91.0167 0.9187
91.0333 0.9187
91.0500 0.9187
91.0667 0.9187
91.0833 0.9187
91.1000 0.9187
91.1167 0.9187
91.1333 0.9187
91.1500 0.9187
91.1667 0.9187
91.1833 0.9187
91.2000 0.9187
91.2167 0.9187
91.2333 0.9187
91.2500 0.9187
91.2667 0.9187
91.2833 0.9187
91.3000 0.9187
91.3167 0.9187
91.3333 0.9187
91.3500 0.9187
91.3667 0.9187
91.3833 0.9187
91.4000 0.9187
91.4167 0.9188
91.4333 0.9188
91.4500 0.9188
91.4667 0.9188
91.4833 0.9188
91.5000 0.9188
91.5167 0.9188
91.5333 0.9188
91.5500 0.9188
91.5667 0.9188
91.5833 0.9188
91.6000 0.9188
91.6167 0.9188
91.6333 0.9188
91.6500 0.9188
91.6667 0.9188
91.6833 0.9188
91.7000 0.9188
91.7167 0.9188
91.7333 0.9188
91.7500 0.9188
91.7667 0.9188
91.7833 0.9188
91.8000 0.9188
91.8167 0.9188
91.8333 0.9188
91.8500 0.9188
91.8667 0.9188
91.8833 0.9188
91.9000 0.9188
91.9167 0.9188
91.9333 0.9188
91.9500 0.9188
91.9667 0.9188
91.9833 0.9188
92.0000 0.9188
92.0167 0.9188
92.0333 0.9188
92.0500 0.9188
92.0667 0.9188
92.0833 0.9188
92.1000 0.9188
92.1167 0.9188
92.1333 0.9188
92.1500 0.9188
92.1667 0.9188
92.1833 0.9188
92.2000 0.9188
92.2167 0.9188
92.2333 0.9188
92.2500 0.9188
92.2667 0.9188
92.2833 0.9188
92.3000 0.9188
92.3167 0.9188
92.3333 0.9188
92.3500 0.9188
92.3667 0.9188
92.3833 0.9188
92.4000 0.9188
92.4167 0.9188
92.4333 0.9188
92.4500 0.9188
92.4667 0.9188
92.4833 0.9188
92.5000 0.9188
92.5167 0.9188
92.5333 0.9188
92.5500 0.9188
92.5667 0.9189
92.5833 0.9189
92.6000 0.9189
92.6167 0.9189
92.6333 0.9189
92.6500 0.9189
92.6667 0.9189
92.6833 0.9189
92.7000 0.9189
92.7167 0.9189
92.7333 0.9189
92.7500 0.9189
92.7667 0.9189
92.7833 0.9189
92.8000 0.9189
92.8167 0.9189
92.8333 0.9189
92.8500 0.9189
92.8667 0.9189
92.8833 0.9189
92.9000 0.9189
92.9167 0.9189
92.9333 0.9189
92.9500 0.9189
92.9667 0.9189
92.9833 0.9189
93.0000 0.9189
93.0167 0.9189
93.0333 0.9189
93.0500 0.9189
93.0667 0.9189
93.0833 0.9189
93.1000 0.9189
93.1167 0.9189
93.1333 0.9189
93.1500 0.9189
93.1667 0.9189
93.1833 0.9189
93.2000 0.9189
93.2167 0.9189
93.2333 0.9189
93.2500 0.9189
93.2667 0.9189
93.2833 0.9189
93.3000 0.9189
93.3167 0.9189
93.3333 0.9189
93.3500 0.9189
93.3667 0.9189
93.3833 0.9189
93.4000 0.9189
93.4167 0.9189
93.4333 0.9189
93.4500 0.9189
93.4667 0.9189
93.4833 0.9189
93.5000 0.9189
93.5167 0.9189
93.5333 0.9189
93.5500 0.9189
93.5667 0.9189
93.5833 0.9189
93.6000 0.9189
93.6167 0.9189
93.6333 0.9189
93.6500 0.9189
93.6667 0.9189
93.6833 0.9189
93.7000 0.9189
93.7167 0.9189
93.7333 0.9189
93.7500 0.9189
93.7667 0.9189
93.7833 0.9189
93.8000 0.9189
93.8167 0.9189
93.8333 0.9189
93.8500 0.9189
93.8667 0.9189
93.8833 0.9189
93.9000 0.9189
93.9167 0.9189
93.9333 0.9189
93.9500 0.9189
93.9667 0.9189
93.9833 0.9189
94.0000 0.9189
94.0167 0.9189
94.0333 0.9189
94.0500 0.9189
94.0667 0.9189
94.0833 0.9189
94.1000 0.9189
94.1167 0.9189
94.1333 0.9189
94.1500 0.9189
94.1667 0.9189
94.1833 0.9189
94.2000 0.9189
94.2167 0.9189
94.2333 0.9189
94.2500 0.9189
94.2667 0.9189
94.2833 0.9189
94.3000 0.9189
94.3167 0.9189
94.3333 0.9189
94.3500 0.9189
94.3667 0.9189
94.3833 0.9189
94.4000 0.9189
94.4167 0.9189
94.4333 0.9189
94.4500 0.9189
94.4667 0.9189
94.4833 0.9189
94.5000 0.9189
94.5167 0.9189
94.5333 0.9189
94.5500 0.9189
94.5667 0.9189
94.5833 0.9189
94.6000 0.9189
94.6167 0.9189
94.6333 0.9189
94.6500 0.9189
94.6667 0.9189
94.6833 0.9189
94.7000 0.9189
94.7167 0.9189
94.7333 0.9189
94.7500 0.9189
94.7667 0.9189
94.7833 0.9189
94.8000 0.9189
94.8167 0.9189
94.8333 0.9189
94.8500 0.9189
94.8667 0.9189
94.8833 0.9189
94.9000 0.9189
94.9167 0.9189
94.9333 0.9189
94.9500 0.9189
94.9667 0.9189
94.9833 0.9189
95.0000 0.9189
95.0167 0.9189
95.0333 0.9189
95.0500 0.9189
95.0667 0.9189
95.0833 0.9189
95.1000 0.9189
95.1167 0.9189
95.1333 0.9189
95.1500 0.9189
95.1667 0.9189
95.1833 0.9189
95.2000 0.9189
95.2167 0.9189
95.2333 0.9189
95.2500 0.9189
95.2667 0.9189
95.2833 0.9189
95.3000 0.9189
95.3167 0.9189
95.3333 0.9189
95.3500 0.9189
95.3667 0.9189
95.3833 0.9189
95.4000 0.9189
95.4167 0.9189
95.4333 0.9189
95.4500 0.9189
95.4667 0.9189
95.4833 0.9189
95.5000 0.9189
95.5167 0.9189
95.5333 0.9189
95.5500 0.9189
95.5667 0.9189
95.5833 0.9189
95.6000 0.9189
95.6167 0.9189
95.6333 0.9189
95.6500 0.9189
95.6667 0.9189
95.6833 0.9189
95.7000 0.9189
95.7167 0.9189
95.7333 0.9189
95.7500 0.9189
95.7667 0.9189
95.7833 0.9189
95.8000 0.9189
95.8167 0.9189
95.8333 0.9189
95.8500 0.9189
95.8667 0.9189
95.8833 0.9189
95.9000 0.9189
95.9167 0.9189
95.9333 0.9189
95.9500 0.9189
95.9667 0.9189
95.9833 0.9189
96.0000 0.9188
96.0167 0.9188
96.0333 0.9188
96.0500 0.9188
96.0667 0.9188
96.0833 0.9188
96.1000 0.9188
96.1167 0.9188
96.1333 0.9188
96.1500 0.9188
96.1667 0.9188
96.1833 0.9188
96.2000 0.9188
96.2167 0.9188
96.2333 0.9188
96.2500 0.9188
96.2667 0.9188
96.2833 0.9188
96.3000 0.9188
96.3167 0.9188
96.3333 0.9188
96.3500 0.9188
96.3667 0.9188
96.3833 0.9188
96.4000 0.9188
96.4167 0.9188
96.4333 0.9188
96.4500 0.9188
96.4667 0.9188
96.4833 0.9188
96.5000 0.9188
96.5167 0.9188
96.5333 0.9188
96.5500 0.9188
96.5667 0.9188
96.5833 0.9188
96.6000 0.9188
96.6167 0.9188
96.6333 0.9188
96.6500 0.9188
96.6667 0.9188
96.6833 0.9188
96.7000 0.9188
96.7167 0.9188
96.7333 0.9188
96.7500 0.9188
96.7667 0.9188
96.7833 0.9188
96.8000 0.9188
96.8167 0.9188
96.8333 0.9188
96.8500 0.9188
96.8667 0.9188
96.8833 0.9188
96.9000 0.9188
96.9167 0.9188
96.9333 0.9188
96.9500 0.9188
96.9667 0.9188
96.9833 0.9188
97.0000 0.9188
97.0167 0.9188
97.0333 0.9188
97.0500 0.9188
97.0667 0.9188
97.0833 0.9188
97.1000 0.9188
97.1167 0.9188
97.1333 0.9188
97.1500 0.9188
97.1667 0.9188
97.1833 0.9188
97.2000 0.9188
97.2167 0.9187
97.2333 0.9187
97.2500 0.9187
97.2667 0.9187
97.2833 0.9187
97.3000 0.9187
97.3167 0.9187
97.3333 0.9187
97.3500 0.9187
97.3667 0.9187
97.3833 0.9187
97.4000 0.9187
97.4167 0.9187
97.4333 0.9187
97.4500 0.9187
97.4667 0.9187
97.4833 0.9187
97.5000 0.9187
97.5167 0.9187
97.5333 0.9187
97.5500 0.9187
97.5667 0.9187
97.5833 0.9187
97.6000 0.9187
97.6167 0.9187
97.6333 0.9187
97.6500 0.9187
97.6667 0.9187
97.6833 0.9187
97.7000 0.9187
97.7167 0.9187
97.7333 0.9187
97.7500 0.9187
97.7667 0.9187
97.7833 0.9187
97.8000 0.9187
97.8167 0.9187
97.8333 0.9187
97.8500 0.9187
97.8667 0.9187
97.8833 0.9187
97.9000 0.9187
97.9167 0.9187
97.9333 0.9187
97.9500 0.9187
97.9667 0.9187
97.9833 0.9187
98.0000 0.9187
98.0167 0.9187
98.0333 0.9187
98.0500 0.9187
98.0667 0.9186
98.0833 0.9186
98.1000 0.9186
98.1167 0.9186
98.1333 0.9186
98.1500 0.9186
98.1667 0.9186
98.1833 0.9186
98.2000 0.9186
98.2167 0.9186
98.2333 0.9186
98.2500 0.9186
98.2667 0.9186
98.2833 0.9186
98.3000 0.9186
98.3167 0.9186
98.3333 0.9186
98.3500 0.9186
98.3667 0.9186
98.3833 0.9186
98.4000 0.9186
98.4167 0.9186
98.4333 0.9186
98.4500 0.9186
98.4667 0.9186
98.4833 0.9186
98.5000 0.9186
98.5167 0.9186
98.5333 0.9186
98.5500 0.9186
98.5667 0.9186
98.5833 0.9186
98.6000 0.9186
98.6167 0.9186
98.6333 0.9186
98.6500 0.9186
98.6667 0.9186
98.6833 0.9186
98.7000 0.9186
98.7167 0.9186
98.7333 0.9186
98.7500 0.9186
98.7667 0.9185
98.7833 0.9185
98.8000 0.9185
98.8167 0.9185
98.8333 0.9185
98.8500 0.9185
98.8667 0.9185
98.8833 0.9185
98.9000 0.9185
98.9167 0.9185
98.9333 0.9185
98.9500 0.9185
98.9667 0.9185
98.9833 0.9185
99.0000 0.9185
99.0167 0.9185
99.0333 0.9185
99.0500 0.9185
99.0667 0.9185
99.0833 0.9185
99.1000 0.9185
99.1167 0.9185
99.1333 0.9185
99.1500 0.9185
99.1667 0.9185
99.1833 0.9185
99.2000 0.9185
99.2167 0.9185
99.2333 0.9185
99.2500 0.9185
99.2667 0.9185
99.2833 0.9185
99.3000 0.9185
99.3167 0.9185
99.3333 0.9185
99.3500 0.9185
99.3667 0.9185
99.3833 0.9184
99.4000 0.9184
99.4167 0.9184
99.4333 0.9184
99.4500 0.9184
99.4667 0.9184
99.4833 0.9184
99.5000 0.9184
99.5167 0.9184
99.5333 0.9184
99.5500 0.9184
99.5667 0.9184
99.5833 0.9184
99.6000 0.9184
99.6167 0.9184
99.6333 0.9184
99.6500 0.9184
99.6667 0.9184
99.6833 0.9184
99.7000 0.9184
99.7167 0.9184
99.7333 0.9184
99.7500 0.9184
99.7667 0.9184
99.7833 0.9184
99.8000 0.9184
99.8167 0.9184
99.8333 0.9184
99.8500 0.9184
99.8667 0.9184
99.8833 0.9184
99.9000 0.9184
99.9167 0.9184
99.9333 0.9184
99.9500 0.9183
99.9667 0.9183
99.9833 0.9183
100.0000 0.9183
100.0167 0.9183
100.0333 0.9183
100.0500 0.9183
100.0667 0.9183
100.0833 0.9183
100.1000 0.9183
100.1167 0.9183
100.1333 0.9183
100.1500 0.9183
100.1667 0.9183
100.1833 0.9183
100.2000 0.9183
100.2167 0.9183
100.2333 0.9183
100.2500 0.9183
100.2667 0.9183
100.2833 0.9183
100.3000 0.9183
100.3167 0.9183
100.3333 0.9183
100.3500 0.9183
100.3667 0.9183
100.3833 0.9183
100.4000 0.9183
100.4167 0.9183
100.4333 0.9183
100.4500 0.9182
100.4667 0.9182
100.4833 0.9182
100.5000 0.9182
100.5167 0.9182
100.5333 0.9182
100.5500 0.9182
100.5667 0.9182
100.5833 0.9182
100.6000 0.9182
100.6167 0.9182
100.6333 0.9182
100.6500 0.9182
100.6667 0.9182
100.6833 0.9182
100.7000 0.9182
100.7167 0.9182
100.7333 0.9182
100.7500 0.9182
100.7667 0.9182
100.7833 0.9182
100.8000 0.9182
100.8167 0.9182
100.8333 0.9182
100.8500 0.9182
100.8667 0.9182
100.8833 0.9182
100.9000 0.9182
100.9167 0.9182
100.9333 0.9181
100.9500 0.9181
100.9667 0.9181
100.9833 0.9181
101.0000 0.9181
101.0167 0.9181
101.0333 0.9181
101.0500 0.9181
101.0667 0.9181
101.0833 0.9181
101.1000 0.9181
101.1167 0.9181
101.1333 0.9181
101.1500 0.9181
101.1667 0.9181
101.1833 0.9181
101.2000 0.9181
101.2167 0.9181
101.2333 0.9181
101.2500 0.9181
101.2667 0.9181
101.2833 0.9181
101.3000 0.9181
101.3167 0.9181
101.3333 0.9181
101.3500 0.9181
101.3667 0.9181
101.3833 0.9180
101.4000 0.9180
101.4167 0.9180
101.4333 0.9180
101.4500 0.9180
101.4667 0.9180
101.4833 0.9180
101.5000 0.9180
101.5167 0.9180
101.5333 0.9180
101.5500 0.9180
101.5667 0.9180
101.5833 0.9180
101.6000 0.9180
101.6167 0.9180
101.6333 0.9180
101.6500 0.9180
101.6667 0.9180
101.6833 0.9180
101.7000 0.9180
101.7167 0.9180
101.7333 0.9180
101.7500 0.9180
101.7667 0.9180
101.7833 0.9180
101.8000 0.9179
101.8167 0.9179
101.8333 0.9179
101.8500 0.9179
101.8667 0.9179
101.8833 0.9179
101.9000 0.9179
101.9167 0.9179
101.9333 0.9179
101.9500 0.9179
101.9667 0.9179
101.9833 0.9179
102.0000 0.9179
102.0167 0.9179
102.0333 0.9179
102.0500 0.9179
102.0667 0.9179
102.0833 0.9179
102.1000 0.9179
102.1167 0.9179
102.1333 0.9179
102.1500 0.9179
102.1667 0.9179
102.1833 0.9179
102.2000 0.9178
102.2167 0.9178
102.2333 0.9178
102.2500 0.9178
102.2667 0.9178
102.2833 0.9178
102.3000 0.9178
102.3167 0.9178
102.3333 0.9178
102.3500 0.9178
102.3667 0.9178
102.3833 0.9178
102.4000 0.9178
102.4167 0.9178
102.4333 0.9178
102.4500 0.9178
102.4667 0.9178
102.4833 0.9178
102.5000 0.9178
102.5167 0.9178
102.5333 0.9178
102.5500 0.9178
102.5667 0.9178
102.5833 0.9178
102.6000 0.9177
102.6167 0.9177
102.6333 0.9177
102.6500 0.9177
102.6667 0.9177
102.6833 0.9177
102.7000 0.9177
102.7167 0.9177
102.7333 0.9177
102.7500 0.9177
102.7667 0.9177
102.7833 0.9177
102.8000 0.9177
102.8167 0.9177
102.8333 0.9177
102.8500 0.9177
102.8667 0.9177
102.8833 0.9177
102.9000 0.9177
102.9167 0.9177
102.9333 0.9177
102.9500 0.9177
102.9667 0.9176
102.9833 0.9176
103.0000 0.9176
103.0167 0.9176
103.0333 0.9176
103.0500 0.9176
103.0667 0.9176
103.0833 0.9176
103.1000 0.9176
103.1167 0.9176
103.1333 0.9176
103.1500 0.9176
103.1667 0.9176
103.1833 0.9176
103.2000 0.9176
103.2167 0.9176
103.2333 0.9176
103.2500 0.9176
103.2667 0.9176
103.2833 0.9176
103.3000 0.9176
103.3167 0.9176
103.3333 0.9175
103.3500 0.9175
103.3667 0.9175
103.3833 0.9175
103.4000 0.9175
103.4167 0.9175
103.4333 0.9175
103.4500 0.9175
103.4667 0.9175
103.4833 0.9175
103.5000 0.9175
103.5167 0.9175
103.5333 0.9175
103.5500 0.9175
103.5667 0.9175
103.5833 0.9175
103.6000 0.9175
103.6167 0.9175
103.6333 0.9175
103.6500 0.9175
103.6667 0.9175
103.6833 0.9174
103.7000 0.9174
103.7167 0.9174
103.7333 0.9174
103.7500 0.9174
103.7667 0.9174
103.7833 0.9174
103.8000 0.9174
103.8167 0.9174
103.8333 0.9174
103.8500 0.9174
103.8667 0.9174
103.8833 0.9174
103.9000 0.9174
103.9167 0.9174
103.9333 0.9174
103.9500 0.9174
103.9667 0.9174
103.9833 0.9174
104.0000 0.9174
104.0167 0.9173
104.0333 0.9173
104.0500 0.9173
104.0667 0.9173
104.0833 0.9173
104.1000 0.9173
104.1167 0.9173
104.1333 0.9173
104.1500 0.9173
104.1667 0.9173
104.1833 0.9173
104.2000 0.9173
104.2167 0.9173
104.2333 0.9173
104.2500 0.9173
104.2667 0.9173
104.2833 0.9173
104.3000 0.9173
104.3167 0.9173
104.3333 0.9173
104.3500 0.9172
104.3667 0.9172
104.3833 0.9172
104.4000 0.9172
104.4167 0.9172
104.4333 0.9172
104.4500 0.9172
104.4667 0.9172
104.4833 0.9172
104.5000 0.9172
104.5167 0.9172
104.5333 0.9172
104.5500 0.9172
104.5667 0.9172
104.5833 0.9172
104.6000 0.9172
104.6167 0.9172
104.6333 0.9172
104.6500 0.9172
104.6667 0.9171
104.6833 0.9171
104.7000 0.9171
104.7167 0.9171
104.7333 0.9171
104.7500 0.9171
104.7667 0.9171
104.7833 0.9171
104.8000 0.9171
104.8167 0.9171
104.8333 0.9171
104.8500 0.9171
104.8667 0.9171
104.8833 0.9171
104.9000 0.9171
104.9167 0.9171
104.9333 0.9171
104.9500 0.9171
104.9667 0.9171
104.9833 0.9170
105.0000 0.9170
105.0167 0.9170
105.0333 0.9170
105.0500 0.9170
105.0667 0.9170
105.0833 0.9170
105.1000 0.9170
105.1167 0.9170
105.1333 0.9170
105.1500 0.9170
105.1667 0.9170
105.1833 0.9170
105.2000 0.9170
105.2167 0.9170
105.2333 0.9170
105.2500 0.9170
105.2667 0.9170
105.2833 0.9169
105.3000 0.9169
105.3167 0.9169
105.3333 0.9169
105.3500 0.9169
105.3667 0.9169
105.3833 0.9169
105.4000 0.9169
105.4167 0.9169
105.4333 0.9169
105.4500 0.9169
105.4667 0.9169
105.4833 0.9169
105.5000 0.9169
105.5167 0.9169
105.5333 0.9169
105.5500 0.9169
105.5667 0.9169
105.5833 0.9168
105.6000 0.9168
105.6167 0.9168
105.6333 0.9168
105.6500 0.9168
105.6667 0.9168
105.6833 0.9168
105.7000 0.9168
105.7167 0.9168
105.7333 0.9168
105.7500 0.9168
105.7667 0.9168
105.7833 0.9168
105.8000 0.9168
105.8167 0.9168
105.8333 0.9168
105.8500 0.9168
105.8667 0.9168
105.8833 0.9167
105.9000 0.9167
105.9167 0.9167
105.9333 0.9167
105.9500 0.9167
105.9667 0.9167
105.9833 0.9167
106.0000 0.9167
106.0167 0.9167
106.0333 0.9167
106.0500 0.9167
106.0667 0.9167
106.0833 0.9167
106.1000 0.9167
106.1167 0.9167
106.1333 0.9167
106.1500 0.9167
106.1667 0.9166
106.1833 0.9166
106.2000 0.9166
106.2167 0.9166
106.2333 0.9166
106.2500 0.9166
106.2667 0.9166
106.2833 0.9166
106.3000 0.9166
106.3167 0.9166
106.3333 0.9166
106.3500 0.9166
106.3667 0.9166
106.3833 0.9166
106.4000 0.9166
106.4167 0.9166
106.4333 0.9166
106.4500 0.9165
106.4667 0.9165
106.4833 0.9165
106.5000 0.9165
106.5167 0.9165
106.5333 0.9165
106.5500 0.9165
106.5667 0.9165
106.5833 0.9165
106.6000 0.9165
106.6167 0.9165
106.6333 0.9165
106.6500 0.9165
106.6667 0.9165
106.6833 0.9165
106.7000 0.9165
106.7167 0.9164
106.7333 0.9164
106.7500 0.9164
106.7667 0.9164
106.7833 0.9164
106.8000 0.9164
106.8167 0.9164
106.8333 0.9164
106.8500 0.9164
106.8667 0.9164
106.8833 0.9164
106.9000 0.9164
106.9167 0.9164
106.9333 0.9164
106.9500 0.9164
106.9667 0.9164
106.9833 0.9164
107.0000 0.9163
107.0167 0.9163
107.0333 0.9163
107.0500 0.9163
107.0667 0.9163
107.0833 0.9163
107.1000 0.9163
107.1167 0.9163
107.1333 0.9163
107.1500 0.9163
107.1667 0.9163
107.1833 0.9163
107.2000 0.9163
107.2167 0.9163
107.2333 0.9163
107.2500 0.9163
107.2667 0.9162
107.2833 0.9162
107.3000 0.9162
107.3167 0.9162
107.3333 0.9162
107.3500 0.9162
107.3667 0.9162
107.3833 0.9162
107.4000 0.9162
107.4167 0.9162
107.4333 0.9162
107.4500 0.9162
107.4667 0.9162
107.4833 0.9162
107.5000 0.9162
107.5167 0.9162
107.5333 0.9161
107.5500 0.9161
107.5667 0.9161
107.5833 0.9161
107.6000 0.9161
107.6167 0.9161
107.6333 0.9161
107.6500 0.9161
107.6667 0.9161
107.6833 0.9161
107.7000 0.9161
107.7167 0.9161
107.7333 0.9161
107.7500 0.9161
107.7667 0.9161
107.7833 0.9160
107.8000 0.9160
107.8167 0.9160
107.8333 0.9160
107.8500 0.9160
107.8667 0.9160
107.8833 0.9160
107.9000 0.9160
107.9167 0.9160
107.9333 0.9160
107.9500 0.9160
107.9667 0.9160
107.9833 0.9160
108.0000 0.9160
108.0167 0.9160
108.0333 0.9160
108.0500 0.9159
108.0667 0.9159
108.0833 0.9159
108.1000 0.9159
108.1167 0.9159
108.1333 0.9159
108.1500 0.9159
108.1667 0.9159
108.1833 0.9159
108.2000 0.9159
108.2167 0.9159
108.2333 0.9159
108.2500 0.9159
108.2667 0.9159
108.2833 0.9159
108.3000 0.9158
108.3167 0.9158
108.3333 0.9158
108.3500 0.9158
108.3667 0.9158
108.3833 0.9158
108.4000 0.9158
108.4167 0.9158
108.4333 0.9158
108.4500 0.9158
108.4667 0.9158
108.4833 0.9158
108.5000 0.9158
108.5167 0.9158
108.5333 0.9158
108.5500 0.9157
108.5667 0.9157
108.5833 0.9157
108.6000 0.9157
108.6167 0.9157
108.6333 0.9157
108.6500 0.9157
108.6667 0.9157
108.6833 0.9157
108.7000 0.9157
108.7167 0.9157
108.7333 0.9157
108.7500 0.9157
108.7667 0.9157
108.7833 0.9156
108.8000 0.9156
108.8167 0.9156
108.8333 0.9156
108.8500 0.9156
108.8667 0.9156
108.8833 0.9156
108.9000 0.9156
108.9167 0.9156
108.9333 0.9156
108.9500 0.9156
108.9667 0.9156
108.9833 0.9156
109.0000 0.9156
109.0167 0.9156
109.0333 0.9155
109.0500 0.9155
109.0667 0.9155
109.0833 0.9155
109.1000 0.9155
109.1167 0.9155
109.1333 0.9155
109.1500 0.9155
109.1667 0.9155
109.1833 0.9155
109.2000 0.9155
109.2167 0.9155
109.2333 0.9155
109.2500 0.9155
109.2667 0.9154
109.2833 0.9154
109.3000 0.9154
109.3167 0.9154
109.3333 0.9154
109.3500 0.9154
109.3667 0.9154
109.3833 0.9154
109.4000 0.9154
109.4167 0.9154
109.4333 0.9154
109.4500 0.9154
109.4667 0.9154
109.4833 0.9154
109.5000 0.9154
109.5167 0.9153
109.5333 0.9153
109.5500 0.9153
109.5667 0.9153
109.5833 0.9153
109.6000 0.9153
109.6167 0.9153
109.6333 0.9153
109.6500 0.9153
109.6667 0.9153
109.6833 0.9153
109.7000 0.9153
109.7167 0.9153
109.7333 0.9153
109.7500 0.9152
109.7667 0.9152
109.7833 0.9152
109.8000 0.9152
109.8167 0.9152
109.8333 0.9152
109.8500 0.9152
109.8667 0.9152
109.8833 0.9152
109.9000 0.9152
109.9167 0.9152
109.9333 0.9152
109.9500 0.9152
109.9667 0.9152
109.9833 0.9151
110.0000 0.9151
110.0167 0.9151
110.0333 0.9151
110.0500 0.9151
110.0667 0.9151
110.0833 0.9151
110.1000 0.9151
110.1167 0.9151
110.1333 0.9151
110.1500 0.9151
110.1667 0.9151
110.1833 0.9151
110.2000 0.9150
110.2167 0.9150
110.2333 0.9150
110.2500 0.9150
110.2667 0.9150
110.2833 0.9150
110.3000 0.9150
110.3167 0.9150
110.3333 0.9150
110.3500 0.9150
110.3667 0.9150
110.3833 0.9150
110.4000 0.9150
110.4167 0.9150
110.4333 0.9149
110.4500 0.9149
110.4667 0.9149
110.4833 0.9149
110.5000 0.9149
110.5167 0.9149
110.5333 0.9149
110.5500 0.9149
110.5667 0.9149
110.5833 0.9149
110.6000 0.9149
110.6167 0.9149
110.6333 0.9149
110.6500 0.9149
110.6667 0.9148
110.6833 0.9148
110.7000 0.9148
110.7167 0.9148
110.7333 0.9148
110.7500 0.9148
110.7667 0.9148
110.7833 0.9148
110.8000 0.9148
110.8167 0.9148
110.8333 0.9148
110.8500 0.9148
110.8667 0.9148
110.8833 0.9147
110.9000 0.9147
110.9167 0.9147
110.9333 0.9147
110.9500 0.9147
110.9667 0.9147
110.9833 0.9147
111.0000 0.9147
111.0167 0.9147
111.0333 0.9147
111.0500 0.9147
111.0667 0.9147
111.0833 0.9147
111.1000 0.9146
111.1167 0.9146
111.1333 0.9146
111.1500 0.9146
111.1667 0.9146
111.1833 0.9146
111.2000 0.9146
111.2167 0.9146
111.2333 0.9146
111.2500 0.9146
111.2667 0.9146
111.2833 0.9146
111.3000 0.9146
111.3167 0.9145
111.3333 0.9145
111.3500 0.9145
111.3667 0.9145
111.3833 0.9145
111.4000 0.9145
111.4167 0.9145
111.4333 0.9145
111.4500 0.9145
111.4667 0.9145
111.4833 0.9145
111.5000 0.9145
111.5167 0.9145
111.5333 0.9144
111.5500 0.9144
111.5667 0.9144
111.5833 0.9144
111.6000 0.9144
111.6167 0.9144
111.6333 0.9144
111.6500 0.9144
111.6667 0.9144
111.6833 0.9144
111.7000 0.9144
111.7167 0.9144
111.7333 0.9144
111.7500 0.9143
111.7667 0.9143
111.7833 0.9143
111.8000 0.9143
111.8167 0.9143
111.8333 0.9143
111.8500 0.9143
111.8667 0.9143
111.8833 0.9143
111.9000 0.9143
111.9167 0.9143
111.9333 0.9143
111.9500 0.9143
111.9667 0.9142
111.9833 0.9142
112.0000 0.9142
112.0167 0.9142
112.0333 0.9142
112.0500 0.9142
112.0667 0.9142
112.0833 0.9142
112.1000 0.9142
112.1167 0.9142
112.1333 0.9142
112.1500 0.9142
112.1667 0.9142
112.1833 0.9141
112.2000 0.9141
112.2167 0.9141
112.2333 0.9141
112.2500 0.9141
112.2667 0.9141
112.2833 0.9141
112.3000 0.9141
112.3167 0.9141
112.3333 0.9141
112.3500 0.9141
112.3667 0.9141
112.3833 0.9140
112.4000 0.9140
112.4167 0.9140
112.4333 0.9140
112.4500 0.9140
112.4667 0.9140
112.4833 0.9140
112.5000 0.9140
112.5167 0.9140
112.5333 0.9140
112.5500 0.9140
112.5667 0.9140
112.5833 0.9140
112.6000 0.9139
112.6167 0.9139
112.6333 0.9139
112.6500 0.9139
112.6667 0.9139
112.6833 0.9139
112.7000 0.9139
112.7167 0.9139
112.7333 0.9139
112.7500 0.9139
112.7667 0.9139
112.7833 0.9139
112.8000 0.9138
112.8167 0.9138
112.8333 0.9138
112.8500 0.9138
112.8667 0.9138
112.8833 0.9138
112.9000 0.9138
112.9167 0.9138
112.9333 0.9138
112.9500 0.9138
112.9667 0.9138
112.9833 0.9138
113.0000 0.9137
113.0167 0.9137
113.0333 0.9137
113.0500 0.9137
113.0667 0.9137
113.0833 0.9137
113.1000 0.9137
113.1167 0.9137
113.1333 0.9137
113.1500 0.9137
113.1667 0.9137
113.1833 0.9137
113.2000 0.9137
113.2167 0.9136
113.2333 0.9136
113.2500 0.9136
113.2667 0.9136
113.2833 0.9136
113.3000 0.9136
113.3167 0.9136
113.3333 0.9136
113.3500 0.9136
113.3667 0.9136
113.3833 0.9136
113.4000 0.9136
113.4167 0.9135
113.4333 0.9135
113.4500 0.9135
113.4667 0.9135
113.4833 0.9135
113.5000 0.9135
113.5167 0.9135
113.5333 0.9135
113.5500 0.9135
113.5667 0.9135
113.5833 0.9135
113.6000 0.9135
113.6167 0.9134
113.6333 0.9134
113.6500 0.9134
113.6667 0.9134
113.6833 0.9134
113.7000 0.9134
113.7167 0.9134
113.7333 0.9134
113.7500 0.9134
113.7667 0.9134
113.7833 0.9134
113.8000 0.9134
113.8167 0.9133
113.8333 0.9133
113.8500 0.9133
113.8667 0.9133
113.8833 0.9133
113.9000 0.9133
113.9167 0.9133
113.9333 0.9133
113.9500 0.9133
113.9667 0.9133
113.9833 0.9133
114.0000 0.9133
114.0167 0.9132
114.0333 0.9132
114.0500 0.9132
114.0667 0.9132
114.0833 0.9132
114.1000 0.9132
114.1167 0.9132
114.1333 0.9132
114.1500 0.9132
114.1667 0.9132
114.1833 0.9132
114.2000 0.9131
114.2167 0.9131
114.2333 0.9131
114.2500 0.9131
114.2667 0.9131
114.2833 0.9131
114.3000 0.9131
114.3167 0.9131
114.3333 0.9131
114.3500 0.9131
114.3667 0.9131
114.3833 0.9131
114.4000 0.9130
114.4167 0.9130
114.4333 0.9130
114.4500 0.9130
114.4667 0.9130
114.4833 0.9130
114.5000 0.9130
114.5167 0.9130
114.5333 0.9130
114.5500 0.9130
114.5667 0.9130
114.5833 0.9130
114.6000 0.9129
114.6167 0.9129
114.6333 0.9129
114.6500 0.9129
114.6667 0.9129
114.6833 0.9129
114.7000 0.9129
114.7167 0.9129
114.7333 0.9129
114.7500 0.9129
114.7667 0.9129
114.7833 0.9128
114.8000 0.9128
114.8167 0.9128
114.8333 0.9128
114.8500 0.9128
114.8667 0.9128
114.8833 0.9128
114.9000 0.9128
114.9167 0.9128
114.9333 0.9128
114.9500 0.9128
114.9667 0.9128
114.9833 0.9127
115.0000 0.9127
115.0167 0.9127
115.0333 0.9127
115.0500 0.9127
115.0667 0.9127
115.0833 0.9127
115.1000 0.9127
115.1167 0.9127
115.1333 0.9127
115.1500 0.9127
115.1667 0.9126
115.1833 0.9126
115.2000 0.9126
115.2167 0.9126
115.2333 0.9126
115.2500 0.9126
115.2667 0.9126
115.2833 0.9126
115.3000 0.9126
115.3167 0.9126
115.3333 0.9126
115.3500 0.9126
115.3667 0.9125
115.3833 0.9125
115.4000 0.9125
115.4167 0.9125
115.4333 0.9125
115.4500 0.9125
115.4667 0.9125
115.4833 0.9125
115.5000 0.9125
115.5167 0.9125
115.5333 0.9125
115.5500 0.9124
115.5667 0.9124
115.5833 0.9124
115.6000 0.9124
115.6167 0.9124
115.6333 0.9124
115.6500 0.9124
115.6667 0.9124
115.6833 0.9124
115.7000 0.9124
115.7167 0.9124
115.7333 0.9123
115.7500 0.9123
115.7667 0.9123
115.7833 0.9123
115.8000 0.9123
115.8167 0.9123
115.8333 0.9123
115.8500 0.9123
115.8667 0.9123
115.8833 0.9123
115.9000 0.9123
115.9167 0.9122
115.9333 0.9122
115.9500 0.9122
115.9667 0.9122
115.9833 0.9122
116.0000 0.9122
116.0167 0.9122
116.0333 0.9122
116.0500 0.9122
116.0667 0.9122
116.0833 0.9122
116.1000 0.9121
116.1167 0.9121
116.1333 0.9121
116.1500 0.9121
116.1667 0.9121
116.1833 0.9121
116.2000 0.9121
116.2167 0.9121
116.2333 0.9121
116.2500 0.9121
116.2667 0.9121
116.2833 0.9120
116.3000 0.9120
116.3167 0.9120
116.3333 0.9120
116.3500 0.9120
116.3667 0.9120
116.3833 0.9120
116.4000 0.9120
116.4167 0.9120
116.4333 0.9120
116.4500 0.9120
116.4667 0.9119
116.4833 0.9119
116.5000 0.9119
116.5167 0.9119
116.5333 0.9119
116.5500 0.9119
116.5667 0.9119
116.5833 0.9119
116.6000 0.9119
116.6167 0.9119
116.6333 0.9119
116.6500 0.9118
116.6667 0.9118
116.6833 0.9118
116.7000 0.9118
116.7167 0.9118
116.7333 0.9118
116.7500 0.9118
116.7667 0.9118
116.7833 0.9118
116.8000 0.9118
116.8167 0.9118
116.8333 0.9117
116.8500 0.9117
116.8667 0.9117
116.8833 0.9117
116.9000 0.9117
116.9167 0.9117
116.9333 0.9117
116.9500 0.9117
116.9667 0.9117
116.9833 0.9117
117.0000 0.9117
117.0167 0.9116
117.0333 0.9116
117.0500 0.9116
117.0667 0.9116
117.0833 0.9116
117.1000 0.9116
117.1167 0.9116
117.1333 0.9116
117.1500 0.9116
117.1667 0.9116
117.1833 0.9116
117.2000 0.9115
117.2167 0.9115
117.2333 0.9115
117.2500 0.9115
117.2667 0.9115
117.2833 0.9115
117.3000 0.9115
117.3167 0.9115
117.3333 0.9115
117.3500 0.9115
117.3667 0.9115
117.3833 0.9114
117.4000 0.9114
117.4167 0.9114
117.4333 0.9114
117.4500 0.9114
117.4667 0.9114
117.4833 0.9114
117.5000 0.9114
117.5167 0.9114
117.5333 0.9114
117.5500 0.9113
117.5667 0.9113
117.5833 0.9113
117.6000 0.9113
117.6167 0.9113
117.6333 0.9113
117.6500 0.9113
117.6667 0.9113
117.6833 0.9113
117.7000 0.9113
117.7167 0.9113
117.7333 0.9112
117.7500 0.9112
117.7667 0.9112
117.7833 0.9112
117.8000 0.9112
117.8167 0.9112
117.8333 0.9112
117.8500 0.9112
117.8667 0.9112
117.8833 0.9112
117.9000 0.9112
117.9167 0.9111
117.9333 0.9111
117.9500 0.9111
117.9667 0.9111
117.9833 0.9111
118.0000 0.9111
118.0167 0.9111
118.0333 0.9111
118.0500 0.9111
118.0667 0.9111
118.0833 0.9110
118.1000 0.9110
118.1167 0.9110
118.1333 0.9110
118.1500 0.9110
118.1667 0.9110
118.1833 0.9110
118.2000 0.9110
118.2167 0.9110
118.2333 0.9110
118.2500 0.9110
118.2667 0.9109
118.2833 0.9109
118.3000 0.9109
118.3167 0.9109
118.3333 0.9109
118.3500 0.9109
118.3667 0.9109
118.3833 0.9109
118.4000 0.9109
118.4167 0.9109
118.4333 0.9108
118.4500 0.9108
118.4667 0.9108
118.4833 0.9108
118.5000 0.9108
118.5167 0.9108
118.5333 0.9108
118.5500 0.9108
118.5667 0.9108
118.5833 0.9108
118.6000 0.9107
118.6167 0.9107
118.6333 0.9107
118.6500 0.9107
118.6667 0.9107
118.6833 0.9107
118.7000 0.9107
118.7167 0.9107
118.7333 0.9107
118.7500 0.9107
118.7667 0.9107
118.7833 0.9106
118.8000 0.9106
118.8167 0.9106
118.8333 0.9106
118.8500 0.9106
118.8667 0.9106
118.8833 0.9106
118.9000 0.9106
118.9167 0.9106
118.9333 0.9106
118.9500 0.9105
118.9667 0.9105
118.9833 0.9105
119.0000 0.9105
119.0167 0.9105
119.0333 0.9105
119.0500 0.9105
119.0667 0.9105
119.0833 0.9105
119.1000 0.9105
119.1167 0.9104
119.1333 0.9104
119.1500 0.9104
119.1667 0.9104
119.1833 0.9104
119.2000 0.9104
119.2167 0.9104
119.2333 0.9104
119.2500 0.9104
119.2667 0.9104
119.2833 0.9104
119.3000 0.9103
119.3167 0.9103
119.3333 0.9103
119.3500 0.9103
119.3667 0.9103
119.3833 0.9103
119.4000 0.9103
119.4167 0.9103
119.4333 0.9103
119.4500 0.9103
119.4667 0.9102
119.4833 0.9102
119.5000 0.9102
119.5167 0.9102
119.5333 0.9102
119.5500 0.9102
119.5667 0.9102
119.5833 0.9102
119.6000 0.9102
119.6167 0.9102
119.6333 0.9101
119.6500 0.9101
119.6667 0.9101
119.6833 0.9101
119.7000 0.9101
119.7167 0.9101
119.7333 0.9101
119.7500 0.9101
119.7667 0.9101
119.7833 0.9101
119.8000 0.9100
119.8167 0.9100
119.8333 0.9100
119.8500 0.9100
119.8667 0.9100
119.8833 0.9100
119.9000 0.9100
119.9167 0.9100
119.9333 0.9100
119.9500 0.9100
119.9667 0.9099
119.9833 0.9099
120.0000 0.9099
