time [s] Activity [arb units]
0.0000 0.0932
0.5000 0.1106
1.0000 0.1277
1.5000 0.1444
2.0000 0.1608
2.5000 0.1769
3.0000 0.1926
3.5000 0.2081
4.0000 0.2232
4.5000 0.2381
5.0000 0.2527
5.5000 0.2669
6.0000 0.2810
6.5000 0.2947
7.0000 0.3081
7.5000 0.3213
8.0000 0.3343
8.5000 0.3470
9.0000 0.3594
9.5000 0.3716
10.0000 0.3835
10.5000 0.3952
11.0000 0.4067
11.5000 0.4180
12.0000 0.4290
12.5000 0.4398
13.0000 0.4504
13.5000 0.4608
14.0000 0.4710
14.5000 0.4810
15.0000 0.4908
15.5000 0.5004
16.0000 0.5098
16.5000 0.5190
17.0000 0.5280
17.5000 0.5369
18.0000 0.5455
18.5000 0.5540
19.0000 0.5623
19.5000 0.5705
20.0000 0.5785
20.5000 0.5863
21.0000 0.5940
21.5000 0.6015
22.0000 0.6089
22.5000 0.6161
23.0000 0.6232
23.5000 0.6301
24.0000 0.6369
24.5000 0.6436
25.0000 0.6501
25.5000 0.6565
26.0000 0.6627
26.5000 0.6689
27.0000 0.6749
27.5000 0.6807
28.0000 0.6865
28.5000 0.6921
29.0000 0.6977
29.5000 0.7031
30.0000 0.7084
30.5000 0.7135
31.0000 0.7186
31.5000 0.7236
32.0000 0.7285
32.5000 0.7332
33.0000 0.7379
33.5000 0.7425
34.0000 0.7470
34.5000 0.7513
35.0000 0.7556
35.5000 0.7598
36.0000 0.7639
36.5000 0.7679
37.0000 0.7719
37.5000 0.7757
38.0000 0.7795
38.5000 0.7832
39.0000 0.7868
39.5000 0.7903
40.0000 0.7938
40.5000 0.7972
41.0000 0.8005
41.5000 0.8037
42.0000 0.8069
42.5000 0.8100
43.0000 0.8130
43.5000 0.8159
44.0000 0.8188
44.5000 0.8217
45.0000 0.8244
45.5000 0.8271
46.0000 0.8298
46.5000 0.8324
47.0000 0.8349
47.5000 0.8374
48.0000 0.8398
48.5000 0.8421
49.0000 0.8444
49.5000 0.8467
50.0000 0.8489
50.5000 0.8510
51.0000 0.8531
51.5000 0.8552
52.0000 0.8572
52.5000 0.8591
53.0000 0.8610
53.5000 0.8629
54.0000 0.8647
54.5000 0.8665
55.0000 0.8682
55.5000 0.8699
56.0000 0.8715
56.5000 0.8731
57.0000 0.8747
57.5000 0.8762
58.0000 0.8777
58.5000 0.8792
59.0000 0.8806
59.5000 0.8820
60.0000 0.8833
60.5000 0.8846
61.0000 0.8859
61.5000 0.8871
62.0000 0.8883
62.5000 0.8895
63.0000 0.8906
63.5000 0.8917
64.0000 0.8928
64.5000 0.8939
65.0000 0.8949
65.5000 0.8959
66.0000 0.8969
66.5000 0.8978
67.0000 0.8987
67.5000 0.8996
68.0000 0.9004
68.5000 0.9013
69.0000 0.9021
69.5000 0.9029
70.0000 0.9036
70.5000 0.9043
71.0000 0.9051
71.5000 0.9057
72.0000 0.9064
72.5000 0.9071
73.0000 0.9077
73.5000 0.9083
74.0000 0.9089
74.5000 0.9094
75.0000 0.9100
75.5000 0.9105
76.0000 0.9110
76.5000 0.9115
77.0000 0.9119
77.5000 0.9124
78.0000 0.9128
78.5000 0.9132
79.0000 0.9136
79.5000 0.9140
80.0000 0.9143
80.5000 0.9147
81.0000 0.9150
81.5000 0.9153
82.0000 0.9156
82.5000 0.9159
83.0000 0.9162
83.5000 0.9164
84.0000 0.9167
84.5000 0.9169
85.0000 0.9171
85.5000 0.9173
86.0000 0.9175
86.5000 0.9177
87.0000 0.9178
87.5000 0.9180
88.0000 0.9181
88.5000 0.9182
89.0000 0.9184
89.5000 0.9185
90.0000 0.9186
90.5000 0.9186
91.0000 0.9187
91.5000 0.9188
92.0000 0.9188
92.5000 0.9188
93.0000 0.9189
93.5000 0.9189
94.0000 0.9189
94.5000 0.9189
95.0000 0.9189
95.5000 0.9189
96.0000 0.9188
96.5000 0.9188
97.0000 0.9188
97.5000 0.9187
98.0000 0.9187
98.5000 0.9186
99.0000 0.9185
99.5000 0.9184
100.0000 0.9183
100.5000 0.9182
101.0000 0.9181
101.5000 0.9180
102.0000 0.9179
102.5000 0.9178
103.0000 0.9176
103.5000 0.9175
104.0000 0.9174
104.5000 0.9172
105.0000 0.9170
105.5000 0.9169
106.0000 0.9167
106.5000 0.9165
107.0000 0.9163
107.5000 0.9162
108.0000 0.9160
108.5000 0.9158
109.0000 0.9156
109.5000 0.9154
110.0000 0.9151
110.5000 0.9149
111.0000 0.9147
111.5000 0.9145
112.0000 0.9142
112.5000 0.9140
113.0000 0.9137
113.5000 0.9135
114.0000 0.9133
114.5000 0.9130
115.0000 0.9127
115.5000 0.9125
116.0000 0.9122
116.5000 0.9119
117.0000 0.9117
117.5000 0.9114
118.0000 0.9111
118.5000 0.9108
119.0000 0.9105
119.5000 0.9102
120.0000 0.9099
120.5000 0.9096
121.0000 0.9093
121.5000 0.9090
122.0000 0.9087
122.5000 0.9084
123.0000 0.9081
123.5000 0.9078
124.0000 0.9074
124.5000 0.9071
125.0000 0.9068
125.5000 0.9065
126.0000 0.9061
126.5000 0.9058
127.0000 0.9055
127.5000 0.9051
128.0000 0.9048
128.5000 0.9044
129.0000 0.9041
129.5000 0.9037
130.0000 0.9034
130.5000 0.9030
131.0000 0.9027
131.5000 0.9023
132.0000 0.9019
132.5000 0.9016
133.0000 0.9012
133.5000 0.9009
134.0000 0.9005
134.5000 0.9001
135.0000 0.8997
135.5000 0.8994
136.0000 0.8990
136.5000 0.8986
137.0000 0.8982
137.5000 0.8979
138.0000 0.8975
138.5000 0.8971
139.0000 0.8967
139.5000 0.8963
140.0000 0.8959
140.5000 0.8956
141.0000 0.8952
141.5000 0.8948
142.0000 0.8944
142.5000 0.8940
143.0000 0.8936
143.5000 0.8932
144.0000 0.8928
144.5000 0.8924
145.0000 0.8920
145.5000 0.8916
146.0000 0.8912
146.5000 0.8908
147.0000 0.8904
147.5000 0.8900
148.0000 0.8896
148.5000 0.8892
149.0000 0.8888
149.5000 0.8883
150.0000 0.8879
150.5000 0.8875
151.0000 0.8871
151.5000 0.8867
152.0000 0.8863
152.5000 0.8859
153.0000 0.8855
153.5000 0.8850
154.0000 0.8846
154.5000 0.8842
155.0000 0.8838
155.5000 0.8834
156.0000 0.8829
156.5000 0.8825
157.0000 0.8821
157.5000 0.8817
158.0000 0.8813
158.5000 0.8808
159.0000 0.8804
159.5000 0.8800
160.0000 0.8796
160.5000 0.8791
161.0000 0.8787
161.5000 0.8783
162.0000 0.8779
162.5000 0.8774
163.0000 0.8770
163.5000 0.8766
164.0000 0.8762
164.5000 0.8757
165.0000 0.8753
165.5000 0.8749
166.0000 0.8744
166.5000 0.8740
167.0000 0.8736
167.5000 0.8731
168.0000 0.8727
168.5000 0.8723
169.0000 0.8718
169.5000 0.8714
170.0000 0.8710
170.5000 0.8705
171.0000 0.8701
171.5000 0.8697
172.0000 0.8692
172.5000 0.8688
173.0000 0.8684
173.5000 0.8679
174.0000 0.8675
174.5000 0.8671
175.0000 0.8666
175.5000 0.8662
176.0000 0.8658
176.5000 0.8653
177.0000 0.8649
177.5000 0.8645
178.0000 0.8640
178.5000 0.8636
179.0000 0.8632
179.5000 0.8627
180.0000 0.8623
180.5000 0.8618
181.0000 0.8614
181.5000 0.8610
182.0000 0.8605
182.5000 0.8601
183.0000 0.8597
183.5000 0.8592
184.0000 0.8588
184.5000 0.8583
185.0000 0.8579
185.5000 0.8575
186.0000 0.8570
186.5000 0.8566
187.0000 0.8562
187.5000 0.8557
188.0000 0.8553
188.5000 0.8548
189.0000 0.8544
189.5000 0.8540
190.0000 0.8535
190.5000 0.8531
191.0000 0.8527
191.5000 0.8522
192.0000 0.8518
192.5000 0.8513
193.0000 0.8509
193.5000 0.8505
194.0000 0.8500
194.5000 0.8496
195.0000 0.8491
195.5000 0.8487
196.0000 0.8483
196.5000 0.8478
197.0000 0.8474
197.5000 0.8470
198.0000 0.8465
198.5000 0.8461
199.0000 0.8456
199.5000 0.8452
200.0000 0.8448
