time [s] Activity [arb units]
0.0000 0.0932
0.5000 0.1106
1.0000 0.1277
1.5000 0.1444
2.0000 0.1608
2.5000 0.1769
3.0000 0.1926
3.5000 0.2081
4.0000 0.2232
4.5000 0.2381
5.0000 0.2527
5.5000 0.2669
6.0000 0.2810
6.5000 0.2947
7.0000 0.3081
7.5000 0.3213
8.0000 0.3343
8.5000 0.3470
9.0000 0.3594
9.5000 0.3716
10.0000 0.3835
10.5000 0.3952
11.0000 0.4067
11.5000 0.4180
12.0000 0.4290
12.5000 0.4398
13.0000 0.4504
13.5000 0.4608
14.0000 0.4710
14.5000 0.4810
15.0000 0.4908
15.5000 0.5004
16.0000 0.5098
16.5000 0.5190
17.0000 0.5280
17.5000 0.5369
18.0000 0.5455
18.5000 0.5540
19.0000 0.5623
19.5000 0.5705
20.0000 0.5785
20.5000 0.5863
21.0000 0.5940
21.5000 0.6015
22.0000 0.6089
22.5000 0.6161
23.0000 0.6232
23.5000 0.6301
24.0000 0.6369
24.5000 0.6436
25.0000 0.6501
25.5000 0.6565
26.0000 0.6627
26.5000 0.6689
27.0000 0.6749
27.5000 0.6807
28.0000 0.6865
28.5000 0.6921
29.0000 0.6977
29.5000 3.0606
30.0000 2.4251
30.5000 2.0475
31.0000 1.8310
31.5000 1.6817
32.0000 1.5696
32.5000 1.4836
33.0000 1.4173
33.5000 1.3663
34.0000 1.3271
34.5000 1.2970
35.0000 1.2741
35.5000 1.2568
36.0000 1.2438
36.5000 1.2341
37.0000 1.2270
37.5000 1.2218
38.0000 1.2182
38.5000 1.2158
39.0000 1.2143
39.5000 1.2135
40.0000 1.2132
40.5000 1.2133
41.0000 1.2137
41.5000 1.2144
42.0000 1.2151
42.5000 1.2160
43.0000 1.2169
43.5000 1.2179
44.0000 1.2189
44.5000 1.2200
45.0000 1.2210
45.5000 1.2220
46.0000 1.2229
46.5000 1.2239
47.0000 1.2248
47.5000 1.2256
48.0000 1.2264
48.5000 1.2272
49.0000 1.2280
49.5000 1.2287
50.0000 1.2293
50.5000 1.2300
51.0000 1.2305
51.5000 1.2311
52.0000 1.2316
52.5000 1.2320
53.0000 1.2324
53.5000 1.2328
54.0000 1.2331
54.5000 1.2334
55.0000 1.2337
55.5000 1.2339
56.0000 1.2341
56.5000 1.2343
57.0000 1.2344
57.5000 1.2345
58.0000 1.2345
58.5000 1.2346
59.0000 1.2346
59.5000 3.5921
60.0000 2.9512
60.5000 2.5683
61.0000 2.3466
61.5000 2.1921
62.0000 2.0751
62.5000 1.9841
63.0000 1.9129
63.5000 1.8570
64.0000 1.8130
64.5000 1.7783
65.0000 1.7508
65.5000 1.7289
66.0000 1.7114
66.5000 1.6973
67.0000 1.6858
67.5000 1.6764
68.0000 1.6686
68.5000 1.6620
69.0000 1.6564
69.5000 1.6515
70.0000 1.6472
70.5000 1.6434
71.0000 1.6399
71.5000 1.6367
72.0000 1.6337
72.5000 1.6308
73.0000 1.6281
73.5000 1.6255
74.0000 1.6229
74.5000 1.6204
75.0000 1.6179
75.5000 1.6155
76.0000 1.6131
76.5000 1.6107
77.0000 1.6083
77.5000 1.6059
78.0000 1.6035
78.5000 1.6012
79.0000 1.5988
79.5000 1.5964
80.0000 1.5940
80.5000 1.5917
81.0000 1.5893
81.5000 1.5869
82.0000 1.5845
82.5000 1.5821
83.0000 1.5797
83.5000 1.5773
84.0000 1.5749
84.5000 1.5725
85.0000 1.5701
85.5000 1.5677
86.0000 1.5653
86.5000 1.5629
87.0000 1.5605
87.5000 1.5581
88.0000 1.5556
88.5000 1.5532
89.0000 1.5508
89.5000 3.9059
90.0000 3.2627
90.5000 2.8775
91.0000 2.6534
91.5000 2.4967
92.0000 2.3774
92.5000 2.2842
93.0000 2.2108
93.5000 2.1528
94.0000 2.1066
94.5000 2.0698
95.0000 2.0402
95.5000 2.0163
96.0000 1.9967
96.5000 1.9805
97.0000 1.9671
97.5000 1.9557
98.0000 1.9459
98.5000 1.9374
99.0000 1.9299
99.5000 1.9231
100.0000 1.9169
100.5000 1.9113
101.0000 1.9059
101.5000 1.9009
102.0000 1.8961
102.5000 1.8915
103.0000 1.8870
103.5000 1.8827
104.0000 1.8784
104.5000 1.8742
105.0000 1.8700
105.5000 1.8659
106.0000 1.8619
106.5000 1.8578
107.0000 1.8538
107.5000 1.8499
108.0000 1.8459
108.5000 1.8420
109.0000 1.8380
109.5000 1.8341
110.0000 1.8302
110.5000 1.8263
111.0000 1.8225
111.5000 1.8186
112.0000 1.8148
112.5000 1.8109
113.0000 1.8071
113.5000 1.8033
114.0000 1.7995
114.5000 1.7957
115.0000 1.7919
115.5000 1.7881
116.0000 1.7844
116.5000 1.7806
117.0000 1.7769
117.5000 1.7731
118.0000 1.7694
118.5000 1.7657
119.0000 1.7620
119.5000 1.7583
120.0000 1.7546
120.5000 1.7509
121.0000 1.7473
121.5000 1.7436
122.0000 1.7400
122.5000 1.7364
123.0000 1.7327
123.5000 1.7291
124.0000 1.7255
124.5000 1.7219
125.0000 1.7184
125.5000 1.7148
126.0000 1.7112
126.5000 1.7077
127.0000 1.7041
127.5000 1.7006
128.0000 1.6971
128.5000 1.6936
129.0000 1.6901
129.5000 1.6866
130.0000 1.6831
130.5000 1.6797
131.0000 1.6762
131.5000 1.6728
132.0000 1.6693
132.5000 1.6659
133.0000 1.6625
133.5000 1.6591
134.0000 1.6557
134.5000 1.6523
135.0000 1.6489
135.5000 1.6456
136.0000 1.6422
136.5000 1.6389
137.0000 1.6355
137.5000 1.6322
138.0000 1.6289
138.5000 1.6256
139.0000 1.6223
139.5000 1.6190
140.0000 1.6157
140.5000 1.6125
141.0000 1.6092
141.5000 1.6060
142.0000 1.6027
142.5000 1.5995
143.0000 1.5963
143.5000 1.5931
144.0000 1.5899
144.5000 1.5867
145.0000 1.5836
145.5000 1.5804
146.0000 1.5773
146.5000 1.5741
147.0000 1.5710
147.5000 1.5679
148.0000 1.5647
148.5000 1.5616
149.0000 1.5585
149.5000 1.5555
150.0000 1.5524
150.5000 1.5493
151.0000 1.5463
151.5000 1.5432
152.0000 1.5402
152.5000 1.5372
153.0000 1.5342
153.5000 1.5311
154.0000 1.5281
154.5000 1.5252
155.0000 1.5222
155.5000 1.5192
156.0000 1.5163
156.5000 1.5133
157.0000 1.5104
157.5000 1.5074
158.0000 1.5045
158.5000 1.5016
159.0000 1.4987
159.5000 1.4958
160.0000 1.4929
160.5000 1.4901
161.0000 1.4872
161.5000 1.4843
162.0000 1.4815
162.5000 1.4787
163.0000 1.4758
163.5000 1.4730
164.0000 1.4702
164.5000 1.4674
165.0000 1.4646
165.5000 1.4618
166.0000 1.4591
166.5000 1.4563
167.0000 1.4535
167.5000 1.4508
168.0000 1.4481
168.5000 1.4453
169.0000 1.4426
169.5000 1.4399
170.0000 1.4372
170.5000 1.4345
171.0000 1.4318
171.5000 1.4291
172.0000 1.4265
172.5000 1.4238
173.0000 1.4212
173.5000 1.4185
174.0000 1.4159
174.5000 1.4133
175.0000 1.4106
175.5000 1.4080
176.0000 1.4054
176.5000 1.4029
177.0000 1.4003
177.5000 1.3977
178.0000 1.3951
178.5000 1.3926
179.0000 1.3900
179.5000 1.3875
180.0000 1.3850
180.5000 1.3824
181.0000 1.3799
181.5000 1.3774
182.0000 1.3749
182.5000 1.3724
183.0000 1.3699
183.5000 1.3675
184.0000 1.3650
184.5000 1.3625
185.0000 1.3601
185.5000 1.3576
186.0000 1.3552
186.5000 1.3528
187.0000 1.3504
187.5000 1.3480
188.0000 1.3456
188.5000 1.3432
189.0000 1.3408
189.5000 1.3384
190.0000 1.3360
190.5000 1.3337
191.0000 1.3313
191.5000 1.3290
192.0000 1.3266
192.5000 1.3243
193.0000 1.3220
193.5000 1.3196
194.0000 1.3173
194.5000 1.3150
195.0000 1.3127
195.5000 1.3104
196.0000 1.3082
196.5000 1.3059
197.0000 1.3036
197.5000 1.3014
198.0000 1.2991
198.5000 1.2969
199.0000 1.2946
199.5000 1.2924
200.0000 1.2902
