time [s] Activity [arb units]
0.0000 0.0000
0.0167 0.0333
0.0333 0.0667
0.0500 0.1000
0.0667 0.1332
0.0833 0.1665
0.1000 0.1997
0.1167 0.2328
0.1333 0.2659
0.1500 0.2989
0.1667 0.3318
0.1833 0.3646
0.2000 0.3973
0.2167 0.4300
0.2333 0.4624
0.2500 0.4948
0.2667 0.5270
0.2833 0.5591
0.3000 0.5910
0.3167 0.6228
0.3333 0.6544
0.3500 0.6858
0.3667 0.7170
0.3833 0.7480
0.4000 0.7788
0.4167 0.8094
0.4333 0.8398
0.4500 0.8699
0.4667 0.8998
0.4833 0.9295
0.5000 0.9589
0.5167 0.9880
0.5333 1.0168
0.5500 1.0454
0.5667 1.0736
0.5833 1.1016
0.6000 1.1293
0.6167 1.1566
0.6333 1.1837
0.6500 1.2104
0.6667 1.2367
0.6833 1.2628
0.7000 1.2884
0.7167 1.3137
0.7333 1.3387
0.7500 1.3633
0.7667 1.3875
0.7833 1.4113
0.8000 1.4347
0.8167 1.4577
0.8333 1.4804
0.8500 1.5026
0.8667 1.5244
0.8833 1.5457
0.9000 1.5667
0.9167 1.5872
0.9333 1.6072
0.9500 1.6268
0.9667 1.6460
0.9833 1.6647
1.0000 1.6829
1.0167 1.7007
1.0333 1.7180
1.0500 1.7348
1.0667 1.7512
1.0833 1.7670
1.1000 1.7824
1.1167 1.7973
1.1333 1.8117
1.1500 1.8255
1.1667 1.8389
1.1833 1.8517
1.2000 1.8641
1.2167 1.8759
1.2333 1.8872
1.2500 1.8980
1.2667 1.9082
1.2833 1.9179
1.3000 1.9271
1.3167 1.9358
1.3333 1.9439
1.3500 1.9514
1.3667 1.9585
1.3833 1.9650
1.4000 1.9709
1.4167 1.9763
1.4333 1.9811
1.4500 1.9854
1.4667 1.9892
1.4833 1.9924
1.5000 1.9950
1.5167 1.9971
1.5333 1.9986
1.5500 1.9996
1.5667 2.0000
1.5833 1.9998
1.6000 1.9991
1.6167 1.9979
1.6333 1.9961
1.6500 1.9937
1.6667 1.9908
1.6833 1.9873
1.7000 1.9833
1.7167 1.9788
1.7333 1.9736
1.7500 1.9680
1.7667 1.9618
1.7833 1.9550
1.8000 1.9477
1.8167 1.9399
1.8333 1.9315
1.8500 1.9226
1.8667 1.9131
1.8833 1.9031
1.9000 1.8926
1.9167 1.8816
1.9333 1.8700
1.9500 1.8579
1.9667 1.8453
1.9833 1.8322
2.0000 1.8186
2.0167 1.8045
2.0333 1.7898
2.0500 1.7747
2.0667 1.7591
2.0833 1.7430
2.1000 1.7264
2.1167 1.7094
2.1333 1.6918
2.1500 1.6738
2.1667 1.6553
2.1833 1.6364
2.2000 1.6170
2.2167 1.5972
2.2333 1.5769
2.2500 1.5561
2.2667 1.5350
2.2833 1.5134
2.3000 1.4914
2.3167 1.4690
2.3333 1.4462
2.3500 1.4229
2.3667 1.3993
2.3833 1.3753
2.4000 1.3509
2.4167 1.3262
2.4333 1.3010
2.4500 1.2755
2.4667 1.2497
2.4833 1.2235
2.5000 1.1969
2.5167 1.1701
2.5333 1.1429
2.5500 1.1154
2.5667 1.0875
2.5833 1.0594
2.6000 1.0310
2.6167 1.0023
2.6333 0.9733
2.6500 0.9441
2.6667 0.9145
2.6833 0.8848
2.7000 0.8548
2.7167 0.8245
2.7333 0.7940
2.7500 0.7633
2.7667 0.7324
2.7833 0.7013
2.8000 0.6700
2.8167 0.6385
2.8333 0.6068
2.8500 0.5750
2.8667 0.5430
2.8833 0.5108
2.9000 0.4785
2.9167 0.4461
2.9333 0.4135
2.9500 0.3808
2.9667 0.3481
2.9833 0.3152
3.0000 0.2822
3.0167 0.2492
3.0333 0.2161
3.0500 0.1829
3.0667 0.1497
3.0833 0.1165
3.1000 0.0832
3.1167 0.0498
3.1333 0.0165
3.1500 0.0084
3.1667 0.0251
3.1833 0.0417
3.2000 0.0584
3.2167 0.0750
3.2333 0.0916
3.2500 0.1082
3.2667 0.1247
3.2833 0.1413
3.3000 0.1577
3.3167 0.1742
3.3333 0.1906
3.3500 0.2069
3.3667 0.2232
3.3833 0.2394
3.4000 0.2555
3.4167 0.2716
3.4333 0.2876
3.4500 0.3035
3.4667 0.3194
3.4833 0.3351
3.5000 0.3508
3.5167 0.3663
3.5333 0.3818
3.5500 0.3971
3.5667 0.4124
3.5833 0.4275
3.6000 0.4425
3.6167 0.4574
3.6333 0.4722
3.6500 0.4868
3.6667 0.5013
3.6833 0.5156
3.7000 0.5298
3.7167 0.5439
3.7333 0.5578
3.7500 0.5716
3.7667 0.5852
3.7833 0.5986
3.8000 0.6119
3.8167 0.6250
3.8333 0.6379
3.8500 0.6506
3.8667 0.6632
3.8833 0.6756
3.9000 0.6878
3.9167 0.6998
3.9333 0.7116
3.9500 0.7232
3.9667 0.7346
3.9833 0.7458
4.0000 0.7568
4.0167 0.7676
4.0333 0.7782
4.0500 0.7885
4.0667 0.7987
4.0833 0.8086
4.1000 0.8183
4.1167 0.8277
4.1333 0.8370
4.1500 0.8460
4.1667 0.8548
4.1833 0.8633
4.2000 0.8716
4.2167 0.8796
4.2333 0.8874
4.2500 0.8950
4.2667 0.9023
4.2833 0.9094
4.3000 0.9162
4.3167 0.9227
4.3333 0.9290
4.3500 0.9351
4.3667 0.9408
4.3833 0.9463
4.4000 0.9516
4.4167 0.9566
4.4333 0.9613
4.4500 0.9658
4.4667 0.9700
4.4833 0.9739
4.5000 0.9775
4.5167 0.9809
4.5333 0.9840
4.5500 0.9868
4.5667 0.9894
4.5833 0.9917
4.6000 0.9937
4.6167 0.9954
4.6333 0.9969
4.6500 0.9981
4.6667 0.9990
4.6833 0.9996
4.7000 0.9999
4.7167 1.0000
4.7333 0.9998
4.7500 0.9993
4.7667 0.9985
4.7833 0.9975
4.8000 0.9962
4.8167 0.9946
4.8333 0.9927
4.8500 0.9905
4.8667 0.9881
4.8833 0.9854
4.9000 0.9825
4.9167 0.9792
4.9333 0.9757
4.9500 0.9719
4.9667 0.9678
4.9833 0.9635
5.0000 0.9589
5.0167 0.9541
5.0333 0.9489
5.0500 0.9435
5.0667 0.9379
5.0833 0.9320
5.1000 0.9258
5.1167 0.9194
5.1333 0.9127
5.1500 0.9058
5.1667 0.8986
5.1833 0.8911
5.2000 0.8835
5.2167 0.8755
5.2333 0.8673
5.2500 0.8589
5.2667 0.8503
5.2833 0.8414
5.3000 0.8323
5.3167 0.8229
5.3333 0.8133
5.3500 0.8035
5.3667 0.7935
5.3833 0.7832
5.4000 0.7728
5.4167 0.7621
5.4333 0.7512
5.4500 0.7401
5.4667 0.7288
5.4833 0.7173
5.5000 0.7055
5.5167 0.6936
5.5333 0.6815
5.5500 0.6692
5.5667 0.6568
5.5833 0.6441
5.6000 0.6313
5.6167 0.6183
5.6333 0.6051
5.6500 0.5917
5.6667 0.5782
5.6833 0.5645
5.7000 0.5507
5.7167 0.5367
5.7333 0.5226
5.7500 0.5083
5.7667 0.4939
5.7833 0.4793
5.8000 0.4646
5.8167 0.4498
5.8333 0.4348
5.8500 0.4198
5.8667 0.4046
5.8833 0.3893
5.9000 0.3739
5.9167 0.3584
5.9333 0.3428
5.9500 0.3271
5.9667 0.3113
5.9833 0.2954
6.0000 0.2794
6.0167 0.2634
6.0333 0.2473
6.0500 0.2311
6.0667 0.2148
6.0833 0.1985
6.1000 0.1822
6.1167 0.1658
6.1333 0.1493
6.1500 0.1328
6.1667 0.1163
6.1833 0.0997
6.2000 0.0831
6.2167 0.0665
6.2333 0.0498
6.2500 0.0332
6.2667 0.0165
6.2833 0.0003
6.3000 0.0336
6.3167 0.0670
6.3333 0.1003
6.3500 0.1335
6.3667 0.1668
6.3833 0.2000
6.4000 0.2331
6.4167 0.2662
6.4333 0.2992
6.4500 0.3321
6.4667 0.3649
6.4833 0.3976
6.5000 0.4302
6.5167 0.4627
6.5333 0.4951
6.5500 0.5273
6.5667 0.5594
6.5833 0.5913
6.6000 0.6231
6.6167 0.6547
6.6333 0.6861
6.6500 0.7173
6.6667 0.7483
6.6833 0.7791
6.7000 0.8097
6.7167 0.8401
6.7333 0.8702
6.7500 0.9001
6.7667 0.9297
6.7833 0.9591
6.8000 0.9882
6.8167 1.0171
6.8333 1.0456
6.8500 1.0739
6.8667 1.1019
6.8833 1.1295
6.9000 1.1569
6.9167 1.1839
6.9333 1.2106
6.9500 1.2370
6.9667 1.2630
6.9833 1.2887
7.0000 1.3140
7.0167 1.3389
7.0333 1.3635
7.0500 1.3877
7.0667 1.4115
7.0833 1.4349
7.1000 1.4579
7.1167 1.4806
7.1333 1.5028
7.1500 1.5245
7.1667 1.5459
7.1833 1.5668
7.2000 1.5873
7.2167 1.6074
7.2333 1.6270
7.2500 1.6462
7.2667 1.6649
7.2833 1.6831
7.3000 1.7009
7.3167 1.7182
7.3333 1.7350
7.3500 1.7513
7.3667 1.7672
7.3833 1.7825
7.4000 1.7974
7.4167 1.8118
7.4333 1.8256
7.4500 1.8390
7.4667 1.8519
7.4833 1.8642
7.5000 1.8760
7.5167 1.8873
7.5333 1.8981
7.5500 1.9083
7.5667 1.9180
7.5833 1.9272
7.6000 1.9358
7.6167 1.9439
7.6333 1.9515
7.6500 1.9585
7.6667 1.9650
7.6833 1.9709
7.7000 1.9763
7.7167 1.9812
7.7333 1.9855
7.7500 1.9892
7.7667 1.9924
7.7833 1.9950
7.8000 1.9971
7.8167 1.9986
7.8333 1.9996
7.8500 2.0000
7.8667 1.9998
7.8833 1.9991
7.9000 1.9979
7.9167 1.9961
7.9333 1.9937
7.9500 1.9908
7.9667 1.9873
7.9833 1.9833
8.0000 1.9787
8.0167 1.9736
8.0333 1.9679
8.0500 1.9617
8.0667 1.9549
8.0833 1.9476
8.1000 1.9398
8.1167 1.9314
8.1333 1.9225
8.1500 1.9130
8.1667 1.9030
8.1833 1.8925
8.2000 1.8815
8.2167 1.8699
8.2333 1.8578
8.2500 1.8452
8.2667 1.8321
8.2833 1.8185
8.3000 1.8043
8.3167 1.7897
8.3333 1.7746
8.3500 1.7590
8.3667 1.7429
8.3833 1.7263
8.4000 1.7092
8.4167 1.6917
8.4333 1.6736
8.4500 1.6552
8.4667 1.6362
8.4833 1.6168
8.5000 1.5970
8.5167 1.5767
8.5333 1.5560
8.5500 1.5348
8.5667 1.5132
8.5833 1.4912
8.6000 1.4688
8.6167 1.4460
8.6333 1.4227
8.6500 1.3991
8.6667 1.3751
8.6833 1.3507
8.7000 1.3259
8.7167 1.3008
8.7333 1.2753
8.7500 1.2494
8.7667 1.2232
8.7833 1.1967
8.8000 1.1698
8.8167 1.1426
8.8333 1.1151
8.8500 1.0873
8.8667 1.0592
8.8833 1.0307
8.9000 1.0020
8.9167 0.9731
8.9333 0.9438
8.9500 0.9143
8.9667 0.8845
8.9833 0.8545
9.0000 0.8242
9.0167 0.7938
9.0333 0.7630
9.0500 0.7321
9.0667 0.7010
9.0833 0.6697
9.1000 0.6382
9.1167 0.6065
9.1333 0.5747
9.1500 0.5427
9.1667 0.5105
9.1833 0.4782
9.2000 0.4458
9.2167 0.4132
9.2333 0.3806
9.2500 0.3478
9.2667 0.3149
9.2833 0.2819
9.3000 0.2489
9.3167 0.2158
9.3333 0.1826
9.3500 0.1494
9.3667 0.1162
9.3833 0.0829
9.4000 0.0496
9.4167 0.0162
9.4333 0.0086
9.4500 0.0252
9.4667 0.0419
9.4833 0.0585
9.5000 0.0752
9.5167 0.0918
9.5333 0.1083
9.5500 0.1249
9.5667 0.1414
9.5833 0.1579
9.6000 0.1743
9.6167 0.1907
9.6333 0.2070
9.6500 0.2233
9.6667 0.2395
9.6833 0.2557
9.7000 0.2718
9.7167 0.2878
9.7333 0.3037
9.7500 0.3195
9.7667 0.3353
9.7833 0.3509
9.8000 0.3665
9.8167 0.3819
9.8333 0.3973
9.8500 0.4125
9.8667 0.4276
9.8833 0.4427
9.9000 0.4575
9.9167 0.4723
9.9333 0.4869
9.9500 0.5014
9.9667 0.5158
9.9833 0.5300
10.0000 0.5440
10.0167 0.5579
10.0333 0.5717
10.0500 0.5853
10.0667 0.5987
10.0833 0.6120
10.1000 0.6251
10.1167 0.6380
10.1333 0.6507
10.1500 0.6633
10.1667 0.6757
10.1833 0.6879
10.2000 0.6999
10.2167 0.7117
10.2333 0.7233
10.2500 0.7347
10.2667 0.7459
10.2833 0.7569
10.3000 0.7677
10.3167 0.7783
10.3333 0.7886
10.3500 0.7988
10.3667 0.8087
10.3833 0.8184
10.4000 0.8278
10.4167 0.8371
10.4333 0.8461
10.4500 0.8548
10.4667 0.8634
10.4833 0.8716
10.5000 0.8797
10.5167 0.8875
10.5333 0.8951
10.5500 0.9024
10.5667 0.9094
10.5833 0.9162
10.6000 0.9228
10.6167 0.9291
10.6333 0.9351
10.6500 0.9409
10.6667 0.9464
10.6833 0.9516
10.7000 0.9566
10.7167 0.9614
10.7333 0.9658
10.7500 0.9700
10.7667 0.9739
10.7833 0.9776
10.8000 0.9809
10.8167 0.9840
10.8333 0.9869
10.8500 0.9894
10.8667 0.9917
10.8833 0.9937
10.9000 0.9954
10.9167 0.9969
10.9333 0.9981
10.9500 0.9990
10.9667 0.9996
10.9833 0.9999
11.0000 1.0000
11.0167 0.9998
11.0333 0.9993
11.0500 0.9985
11.0667 0.9975
11.0833 0.9962
11.1000 0.9946
11.1167 0.9927
11.1333 0.9905
11.1500 0.9881
11.1667 0.9854
11.1833 0.9824
11.2000 0.9792
11.2167 0.9757
11.2333 0.9719
11.2500 0.9678
11.2667 0.9635
11.2833 0.9589
11.3000 0.9540
11.3167 0.9489
11.3333 0.9435
11.3500 0.9378
11.3667 0.9319
11.3833 0.9258
11.4000 0.9193
11.4167 0.9126
11.4333 0.9057
11.4500 0.8985
11.4667 0.8911
11.4833 0.8834
11.5000 0.8755
11.5167 0.8673
11.5333 0.8589
11.5500 0.8502
11.5667 0.8413
11.5833 0.8322
11.6000 0.8228
11.6167 0.8132
11.6333 0.8034
11.6500 0.7934
11.6667 0.7831
11.6833 0.7727
11.7000 0.7620
11.7167 0.7511
11.7333 0.7400
11.7500 0.7287
11.7667 0.7171
11.7833 0.7054
11.8000 0.6935
11.8167 0.6814
11.8333 0.6691
11.8500 0.6567
11.8667 0.6440
11.8833 0.6312
11.9000 0.6181
11.9167 0.6050
11.9333 0.5916
11.9500 0.5781
11.9667 0.5644
11.9833 0.5506
12.0000 0.5366
12.0167 0.5224
12.0333 0.5082
12.0500 0.4937
12.0667 0.4792
12.0833 0.4645
12.1000 0.4496
12.1167 0.4347
12.1333 0.4196
12.1500 0.4044
12.1667 0.3891
12.1833 0.3737
12.2000 0.3582
12.2167 0.3426
12.2333 0.3269
12.2500 0.3111
12.2667 0.2952
12.2833 0.2793
12.3000 0.2632
12.3167 0.2471
12.3333 0.2309
12.3500 0.2147
12.3667 0.1984
12.3833 0.1820
12.4000 0.1656
12.4167 0.1491
12.4333 0.1326
12.4500 0.1161
12.4667 0.0995
12.4833 0.0829
12.5000 0.0663
12.5167 0.0497
12.5333 0.0330
12.5500 0.0164
12.5667 0.0006
12.5833 0.0339
12.6000 0.0672
12.6167 0.1005
12.6333 0.1338
12.6500 0.1671
12.6667 0.2003
12.6833 0.2334
12.7000 0.2665
12.7167 0.2995
12.7333 0.3324
12.7500 0.3652
12.7667 0.3979
12.7833 0.4305
12.8000 0.4630
12.8167 0.4954
12.8333 0.5276
12.8500 0.5597
12.8667 0.5916
12.8833 0.6234
12.9000 0.6549
12.9167 0.6864
12.9333 0.7176
12.9500 0.7486
12.9667 0.7794
12.9833 0.8100
13.0000 0.8403
13.0167 0.8705
13.0333 0.9004
13.0500 0.9300
13.0667 0.9594
13.0833 0.9885
13.1000 1.0173
13.1167 1.0459
13.1333 1.0741
13.1500 1.1021
13.1667 1.1298
13.1833 1.1571
13.2000 1.1841
13.2167 1.2108
13.2333 1.2372
13.2500 1.2632
13.2667 1.2889
13.2833 1.3142
13.3000 1.3391
13.3167 1.3637
13.3333 1.3879
13.3500 1.4117
13.3667 1.4351
13.3833 1.4581
13.4000 1.4808
13.4167 1.5030
13.4333 1.5247
13.4500 1.5461
13.4667 1.5670
13.4833 1.5875
13.5000 1.6076
13.5167 1.6272
13.5333 1.6463
13.5500 1.6650
13.5667 1.6833
13.5833 1.7010
13.6000 1.7183
13.6167 1.7351
13.6333 1.7515
13.6500 1.7673
13.6667 1.7827
13.6833 1.7975
13.7000 1.8119
13.7167 1.8258
13.7333 1.8391
13.7500 1.8520
13.7667 1.8643
13.7833 1.8761
13.8000 1.8874
13.8167 1.8982
13.8333 1.9084
13.8500 1.9181
13.8667 1.9273
13.8833 1.9359
13.9000 1.9440
13.9167 1.9516
13.9333 1.9586
13.9500 1.9651
13.9667 1.9710
13.9833 1.9764
14.0000 1.9812
14.0167 1.9855
14.0333 1.9892
14.0500 1.9924
14.0667 1.9950
14.0833 1.9971
14.1000 1.9986
14.1167 1.9996
14.1333 2.0000
14.1500 1.9998
14.1667 1.9991
14.1833 1.9979
14.2000 1.9961
14.2167 1.9937
14.2333 1.9908
14.2500 1.9873
14.2667 1.9833
14.2833 1.9787
14.3000 1.9735
14.3167 1.9679
14.3333 1.9616
14.3500 1.9549
14.3667 1.9476
14.3833 1.9397
14.4000 1.9313
14.4167 1.9224
14.4333 1.9129
14.4500 1.9029
14.4667 1.8924
14.4833 1.8814
14.5000 1.8698
14.5167 1.8577
14.5333 1.8451
14.5500 1.8320
14.5667 1.8183
14.5833 1.8042
14.6000 1.7896
14.6167 1.7745
14.6333 1.7588
14.6500 1.7427
14.6667 1.7261
14.6833 1.7090
14.7000 1.6915
14.7167 1.6735
14.7333 1.6550
14.7500 1.6360
14.7667 1.6166
14.7833 1.5968
14.8000 1.5765
14.8167 1.5558
14.8333 1.5346
14.8500 1.5130
14.8667 1.4910
14.8833 1.4686
14.9000 1.4458
14.9167 1.4225
14.9333 1.3989
14.9500 1.3749
14.9667 1.3505
14.9833 1.3257
15.0000 1.3006
15.0167 1.2751
15.0333 1.2492
15.0500 1.2230
15.0667 1.1965
15.0833 1.1696
15.1000 1.1424
15.1167 1.1149
15.1333 1.0870
15.1500 1.0589
15.1667 1.0305
15.1833 1.0018
15.2000 0.9728
15.2167 0.9435
15.2333 0.9140
15.2500 0.8842
15.2667 0.8542
15.2833 0.8240
15.3000 0.7935
15.3167 0.7628
15.3333 0.7319
15.3500 0.7007
15.3667 0.6694
15.3833 0.6379
15.4000 0.6062
15.4167 0.5744
15.4333 0.5424
15.4500 0.5102
15.4667 0.4779
15.4833 0.4455
15.5000 0.4129
15.5167 0.3803
15.5333 0.3475
15.5500 0.3146
15.5667 0.2817
15.5833 0.2486
15.6000 0.2155
15.6167 0.1823
15.6333 0.1491
15.6500 0.1159
15.6667 0.0826
15.6833 0.0493
15.7000 0.0159
15.7167 0.0087
15.7333 0.0254
15.7500 0.0420
15.7667 0.0587
15.7833 0.0753
15.8000 0.0919
15.8167 0.1085
15.8333 0.1250
15.8500 0.1416
15.8667 0.1580
15.8833 0.1745
15.9000 0.1909
15.9167 0.2072
15.9333 0.2235
15.9500 0.2397
15.9667 0.2558
15.9833 0.2719
16.0000 0.2879
16.0167 0.3038
16.0333 0.3197
16.0500 0.3354
16.0667 0.3511
16.0833 0.3666
16.1000 0.3821
16.1167 0.3974
16.1333 0.4127
16.1500 0.4278
16.1667 0.4428
16.1833 0.4577
16.2000 0.4724
16.2167 0.4870
16.2333 0.5015
16.2500 0.5159
16.2667 0.5301
16.2833 0.5441
16.3000 0.5581
16.3167 0.5718
16.3333 0.5854
16.3500 0.5988
16.3667 0.6121
16.3833 0.6252
16.4000 0.6381
16.4167 0.6508
16.4333 0.6634
16.4500 0.6758
16.4667 0.6880
16.4833 0.7000
16.5000 0.7118
16.5167 0.7234
16.5333 0.7348
16.5500 0.7460
16.5667 0.7570
16.5833 0.7678
16.6000 0.7784
16.6167 0.7887
16.6333 0.7988
16.6500 0.8088
16.6667 0.8184
16.6833 0.8279
16.7000 0.8371
16.7167 0.8461
16.7333 0.8549
16.7500 0.8634
16.7667 0.8717
16.7833 0.8798
16.8000 0.8876
16.8167 0.8951
16.8333 0.9024
16.8500 0.9095
16.8667 0.9163
16.8833 0.9228
16.9000 0.9291
16.9167 0.9352
16.9333 0.9409
16.9500 0.9464
16.9667 0.9517
16.9833 0.9567
17.0000 0.9614
17.0167 0.9658
17.0333 0.9700
17.0500 0.9739
17.0667 0.9776
17.0833 0.9810
17.1000 0.9841
17.1167 0.9869
17.1333 0.9894
17.1500 0.9917
17.1667 0.9937
17.1833 0.9955
17.2000 0.9969
17.2167 0.9981
17.2333 0.9990
17.2500 0.9996
17.2667 0.9999
17.2833 1.0000
17.3000 0.9998
17.3167 0.9993
17.3333 0.9985
17.3500 0.9975
17.3667 0.9961
17.3833 0.9945
17.4000 0.9927
17.4167 0.9905
17.4333 0.9881
17.4500 0.9854
17.4667 0.9824
17.4833 0.9791
17.5000 0.9756
17.5167 0.9718
17.5333 0.9678
17.5500 0.9634
17.5667 0.9588
17.5833 0.9540
17.6000 0.9488
17.6167 0.9435
17.6333 0.9378
17.6500 0.9319
17.6667 0.9257
17.6833 0.9193
17.7000 0.9126
17.7167 0.9056
17.7333 0.8984
17.7500 0.8910
17.7667 0.8833
17.7833 0.8754
17.8000 0.8672
17.8167 0.8588
17.8333 0.8501
17.8500 0.8412
17.8667 0.8321
17.8833 0.8227
17.9000 0.8132
17.9167 0.8033
17.9333 0.7933
17.9500 0.7831
17.9667 0.7726
17.9833 0.7619
18.0000 0.7510
18.0167 0.7399
18.0333 0.7286
18.0500 0.7170
18.0667 0.7053
18.0833 0.6934
18.1000 0.6813
18.1167 0.6690
18.1333 0.6565
18.1500 0.6439
18.1667 0.6310
18.1833 0.6180
18.2000 0.6048
18.2167 0.5915
18.2333 0.5780
18.2500 0.5643
18.2667 0.5504
18.2833 0.5364
18.3000 0.5223
18.3167 0.5080
18.3333 0.4936
18.3500 0.4790
18.3667 0.4643
18.3833 0.4495
18.4000 0.4346
18.4167 0.4195
18.4333 0.4043
18.4500 0.3890
18.4667 0.3736
18.4833 0.3581
18.5000 0.3425
18.5167 0.3268
18.5333 0.3110
18.5500 0.2951
18.5667 0.2791
18.5833 0.2631
18.6000 0.2470
18.6167 0.2308
18.6333 0.2145
18.6500 0.1982
18.6667 0.1819
18.6833 0.1655
18.7000 0.1490
18.7167 0.1325
18.7333 0.1160
18.7500 0.0994
18.7667 0.0828
18.7833 0.0662
18.8000 0.0495
18.8167 0.0329
18.8333 0.0162
18.8500 0.0009
18.8667 0.0342
18.8833 0.0675
18.9000 0.1008
18.9167 0.1341
18.9333 0.1674
18.9500 0.2006
18.9667 0.2337
18.9833 0.2668
19.0000 0.2998
19.0167 0.3327
19.0333 0.3655
19.0500 0.3982
19.0667 0.4308
19.0833 0.4633
19.1000 0.4957
19.1167 0.5279
19.1333 0.5600
19.1500 0.5919
19.1667 0.6236
19.1833 0.6552
19.2000 0.6866
19.2167 0.7178
19.2333 0.7489
19.2500 0.7797
19.2667 0.8102
19.2833 0.8406
19.3000 0.8707
19.3167 0.9006
19.3333 0.9303
19.3500 0.9596
19.3667 0.9887
19.3833 1.0176
19.4000 1.0461
19.4167 1.0744
19.4333 1.1024
19.4500 1.1300
19.4667 1.1574
19.4833 1.1844
19.5000 1.2111
19.5167 1.2374
19.5333 1.2635
19.5500 1.2891
19.5667 1.3144
19.5833 1.3394
19.6000 1.3639
19.6167 1.3881
19.6333 1.4119
19.6500 1.4353
19.6667 1.4583
19.6833 1.4810
19.7000 1.5031
19.7167 1.5249
19.7333 1.5463
19.7500 1.5672
19.7667 1.5877
19.7833 1.6077
19.8000 1.6273
19.8167 1.6465
19.8333 1.6652
19.8500 1.6834
19.8667 1.7012
19.8833 1.7185
19.9000 1.7353
19.9167 1.7516
19.9333 1.7675
19.9500 1.7828
19.9667 1.7977
19.9833 1.8120
20.0000 1.8259
20.0167 1.8392
20.0333 1.8521
20.0500 1.8644
20.0667 1.8762
20.0833 1.8875
20.1000 1.8982
20.1167 1.9085
20.1333 1.9182
20.1500 1.9274
20.1667 1.9360
20.1833 1.9441
20.2000 1.9516
20.2167 1.9587
20.2333 1.9651
20.2500 1.9711
20.2667 1.9764
20.2833 1.9813
20.3000 1.9855
20.3167 1.9893
20.3333 1.9924
20.3500 1.9951
20.3667 1.9971
20.3833 1.9986
20.4000 1.9996
20.4167 2.0000
20.4333 1.9998
20.4500 1.9991
20.4667 1.9979
20.4833 1.9960
20.5000 1.9937
20.5167 1.9907
20.5333 1.9872
20.5500 1.9832
20.5667 1.9786
20.5833 1.9735
20.6000 1.9678
20.6167 1.9616
20.6333 1.9548
20.6500 1.9475
20.6667 1.9396
20.6833 1.9312
20.7000 1.9223
20.7167 1.9128
20.7333 1.9028
20.7500 1.8923
20.7667 1.8813
20.7833 1.8697
20.8000 1.8576
20.8167 1.8450
20.8333 1.8319
20.8500 1.8182
20.8667 1.8041
20.8833 1.7895
20.9000 1.7743
20.9167 1.7587
20.9333 1.7426
20.9500 1.7260
20.9667 1.7089
20.9833 1.6913
21.0000 1.6733
21.0167 1.6548
21.0333 1.6359
21.0500 1.6165
21.0667 1.5966
21.0833 1.5763
21.1000 1.5556
21.1167 1.5344
21.1333 1.5128
21.1500 1.4908
21.1667 1.4684
21.1833 1.4456
21.2000 1.4223
21.2167 1.3987
21.2333 1.3747
21.2500 1.3503
21.2667 1.3255
21.2833 1.3004
21.3000 1.2748
21.3167 1.2490
21.3333 1.2228
21.3500 1.1962
21.3667 1.1694
21.3833 1.1422
21.4000 1.1146
21.4167 1.0868
21.4333 1.0587
21.4500 1.0302
21.4667 1.0015
21.4833 0.9725
21.5000 0.9433
21.5167 0.9138
21.5333 0.8840
21.5500 0.8540
21.5667 0.8237
21.5833 0.7932
21.6000 0.7625
21.6167 0.7316
21.6333 0.7005
21.6500 0.6691
21.6667 0.6376
21.6833 0.6060
21.7000 0.5741
21.7167 0.5421
21.7333 0.5099
21.7500 0.4776
21.7667 0.4452
21.7833 0.4126
21.8000 0.3800
21.8167 0.3472
21.8333 0.3143
21.8500 0.2814
21.8667 0.2483
21.8833 0.2152
21.9000 0.1820
21.9167 0.1488
21.9333 0.1156
21.9500 0.0823
21.9667 0.0490
21.9833 0.0156
22.0000 0.0089
22.0167 0.0255
22.0333 0.0422
22.0500 0.0588
22.0667 0.0754
22.0833 0.0921
22.1000 0.1086
22.1167 0.1252
22.1333 0.1417
22.1500 0.1582
22.1667 0.1746
22.1833 0.1910
22.2000 0.2073
22.2167 0.2236
22.2333 0.2398
22.2500 0.2560
22.2667 0.2720
22.2833 0.2880
22.3000 0.3040
22.3167 0.3198
22.3333 0.3355
22.3500 0.3512
22.3667 0.3668
22.3833 0.3822
22.4000 0.3976
22.4167 0.4128
22.4333 0.4279
22.4500 0.4429
22.4667 0.4578
22.4833 0.4726
22.5000 0.4872
22.5167 0.5017
22.5333 0.5160
22.5500 0.5302
22.5667 0.5443
22.5833 0.5582
22.6000 0.5719
22.6167 0.5855
22.6333 0.5989
22.6500 0.6122
22.6667 0.6253
22.6833 0.6382
22.7000 0.6510
22.7167 0.6635
22.7333 0.6759
22.7500 0.6881
22.7667 0.7001
22.7833 0.7119
22.8000 0.7235
22.8167 0.7349
22.8333 0.7461
22.8500 0.7571
22.8667 0.7679
22.8833 0.7784
22.9000 0.7888
22.9167 0.7989
22.9333 0.8088
22.9500 0.8185
22.9667 0.8280
22.9833 0.8372
23.0000 0.8462
23.0167 0.8550
23.0333 0.8635
23.0500 0.8718
23.0667 0.8798
23.0833 0.8876
23.1000 0.8952
23.1167 0.9025
23.1333 0.9095
23.1500 0.9163
23.1667 0.9229
23.1833 0.9292
23.2000 0.9352
23.2167 0.9410
23.2333 0.9465
23.2500 0.9517
23.2667 0.9567
23.2833 0.9614
23.3000 0.9659
23.3167 0.9701
23.3333 0.9740
23.3500 0.9776
23.3667 0.9810
23.3833 0.9841
23.4000 0.9869
23.4167 0.9895
23.4333 0.9917
23.4500 0.9937
23.4667 0.9955
23.4833 0.9969
23.5000 0.9981
23.5167 0.9990
23.5333 0.9996
23.5500 0.9999
23.5667 1.0000
23.5833 0.9998
23.6000 0.9993
23.6167 0.9985
23.6333 0.9975
23.6500 0.9961
23.6667 0.9945
23.6833 0.9926
23.7000 0.9905
23.7167 0.9881
23.7333 0.9853
23.7500 0.9824
23.7667 0.9791
23.7833 0.9756
23.8000 0.9718
23.8167 0.9677
23.8333 0.9634
23.8500 0.9588
23.8667 0.9539
23.8833 0.9488
23.9000 0.9434
23.9167 0.9377
23.9333 0.9318
23.9500 0.9256
23.9667 0.9192
23.9833 0.9125
24.0000 0.9056
24.0167 0.8984
24.0333 0.8909
24.0500 0.8832
24.0667 0.8753
24.0833 0.8671
24.1000 0.8587
24.1167 0.8500
24.1333 0.8412
24.1500 0.8320
24.1667 0.8227
24.1833 0.8131
24.2000 0.8033
24.2167 0.7932
24.2333 0.7830
24.2500 0.7725
24.2667 0.7618
24.2833 0.7509
24.3000 0.7398
24.3167 0.7285
24.3333 0.7169
24.3500 0.7052
24.3667 0.6933
24.3833 0.6812
24.4000 0.6689
24.4167 0.6564
24.4333 0.6438
24.4500 0.6309
24.4667 0.6179
24.4833 0.6047
24.5000 0.5914
24.5167 0.5778
24.5333 0.5642
24.5500 0.5503
24.5667 0.5363
24.5833 0.5222
24.6000 0.5079
24.6167 0.4935
24.6333 0.4789
24.6500 0.4642
24.6667 0.4494
24.6833 0.4344
24.7000 0.4194
24.7167 0.4042
24.7333 0.3889
24.7500 0.3735
24.7667 0.3580
24.7833 0.3423
24.8000 0.3266
24.8167 0.3108
24.8333 0.2950
24.8500 0.2790
24.8667 0.2629
24.8833 0.2468
24.9000 0.2306
24.9167 0.2144
24.9333 0.1981
24.9500 0.1817
24.9667 0.1653
24.9833 0.1489
25.0000 0.1324
25.0167 0.1158
25.0333 0.0992
25.0500 0.0826
25.0667 0.0660
25.0833 0.0494
25.1000 0.0327
25.1167 0.0161
25.1333 0.0012
25.1500 0.0345
25.1667 0.0678
25.1833 0.1011
25.2000 0.1344
25.2167 0.1677
25.2333 0.2008
25.2500 0.2340
25.2667 0.2671
25.2833 0.3000
25.3000 0.3330
25.3167 0.3658
25.3333 0.3985
25.3500 0.4311
25.3667 0.4636
25.3833 0.4960
25.4000 0.5282
25.4167 0.5603
25.4333 0.5922
25.4500 0.6239
25.4667 0.6555
25.4833 0.6869
25.5000 0.7181
25.5167 0.7491
25.5333 0.7799
25.5500 0.8105
25.5667 0.8409
25.5833 0.8710
25.6000 0.9009
25.6167 0.9305
25.6333 0.9599
25.6500 0.9890
25.6667 1.0178
25.6833 1.0464
25.7000 1.0746
25.7167 1.1026
25.7333 1.1303
25.7500 1.1576
25.7667 1.1846
25.7833 1.2113
25.8000 1.2377
25.8167 1.2637
25.8333 1.2893
25.8500 1.3146
25.8667 1.3396
25.8833 1.3641
25.9000 1.3883
25.9167 1.4121
25.9333 1.4355
25.9500 1.4585
25.9667 1.4811
25.9833 1.5033
26.0000 1.5251
26.0167 1.5465
26.0333 1.5674
26.0500 1.5879
26.0667 1.6079
26.0833 1.6275
26.1000 1.6467
26.1167 1.6654
26.1333 1.6836
26.1500 1.7013
26.1667 1.7186
26.1833 1.7354
26.2000 1.7518
26.2167 1.7676
26.2333 1.7830
26.2500 1.7978
26.2667 1.8122
26.2833 1.8260
26.3000 1.8394
26.3167 1.8522
26.3333 1.8645
26.3500 1.8763
26.3667 1.8876
26.3833 1.8983
26.4000 1.9086
26.4167 1.9183
26.4333 1.9274
26.4500 1.9361
26.4667 1.9442
26.4833 1.9517
26.5000 1.9587
26.5167 1.9652
26.5333 1.9711
26.5500 1.9765
26.5667 1.9813
26.5833 1.9856
26.6000 1.9893
26.6167 1.9925
26.6333 1.9951
26.6500 1.9971
26.6667 1.9986
26.6833 1.9996
26.7000 2.0000
26.7167 1.9998
26.7333 1.9991
26.7500 1.9978
26.7667 1.9960
26.7833 1.9936
26.8000 1.9907
26.8167 1.9872
26.8333 1.9832
26.8500 1.9786
26.8667 1.9734
26.8833 1.9678
26.9000 1.9615
26.9167 1.9547
26.9333 1.9474
26.9500 1.9396
26.9667 1.9312
26.9833 1.9222
27.0000 1.9128
27.0167 1.9027
27.0333 1.8922
27.0500 1.8812
27.0667 1.8696
27.0833 1.8575
27.1000 1.8449
27.1167 1.8317
27.1333 1.8181
27.1500 1.8040
27.1667 1.7893
27.1833 1.7742
27.2000 1.7585
27.2167 1.7424
27.2333 1.7258
27.2500 1.7087
27.2667 1.6912
27.2833 1.6731
27.3000 1.6547
27.3167 1.6357
27.3333 1.6163
27.3500 1.5964
27.3667 1.5761
27.3833 1.5554
27.4000 1.5342
27.4167 1.5126
27.4333 1.4906
27.4500 1.4682
27.4667 1.4454
27.4833 1.4221
27.5000 1.3985
27.5167 1.3745
27.5333 1.3501
27.5500 1.3253
27.5667 1.3001
27.5833 1.2746
27.6000 1.2488
27.6167 1.2225
27.6333 1.1960
27.6500 1.1691
27.6667 1.1419
27.6833 1.1144
27.7000 1.0866
27.7167 1.0584
27.7333 1.0300
27.7500 1.0013
27.7667 0.9723
27.7833 0.9430
27.8000 0.9135
27.8167 0.8837
27.8333 0.8537
27.8500 0.8234
27.8667 0.7929
27.8833 0.7622
27.9000 0.7313
27.9167 0.7002
27.9333 0.6689
27.9500 0.6374
27.9667 0.6057
27.9833 0.5738
28.0000 0.5418
28.0167 0.5097
28.0333 0.4773
28.0500 0.4449
28.0667 0.4124
28.0833 0.3797
28.1000 0.3469
28.1167 0.3140
28.1333 0.2811
28.1500 0.2480
28.1667 0.2149
28.1833 0.1818
28.2000 0.1485
28.2167 0.1153
28.2333 0.0820
28.2500 0.0487
28.2667 0.0153
28.2833 0.0090
28.3000 0.0257
28.3167 0.0423
28.3333 0.0590
28.3500 0.0756
28.3667 0.0922
28.3833 0.1088
28.4000 0.1253
28.4167 0.1419
28.4333 0.1583
28.4500 0.1748
28.4667 0.1911
28.4833 0.2075
28.5000 0.2238
28.5167 0.2400
28.5333 0.2561
28.5500 0.2722
28.5667 0.2882
28.5833 0.3041
28.6000 0.3199
28.6167 0.3357
28.6333 0.3513
28.6500 0.3669
28.6667 0.3823
28.6833 0.3977
28.7000 0.4129
28.7167 0.4280
28.7333 0.4431
28.7500 0.4579
28.7667 0.4727
28.7833 0.4873
28.8000 0.5018
28.8167 0.5161
28.8333 0.5303
28.8500 0.5444
28.8667 0.5583
28.8833 0.5720
28.9000 0.5856
28.9167 0.5991
28.9333 0.6123
28.9500 0.6254
28.9667 0.6383
28.9833 0.6511
29.0000 0.6636
29.0167 0.6760
29.0333 0.6882
29.0500 0.7002
29.0667 0.7120
29.0833 0.7236
29.1000 0.7350
29.1167 0.7462
29.1333 0.7572
29.1500 0.7680
29.1667 0.7785
29.1833 0.7889
29.2000 0.7990
29.2167 0.8089
29.2333 0.8186
29.2500 0.8281
29.2667 0.8373
29.2833 0.8463
29.3000 0.8551
29.3167 0.8636
29.3333 0.8719
29.3500 0.8799
29.3667 0.8877
29.3833 0.8953
29.4000 0.9026
29.4167 0.9096
29.4333 0.9164
29.4500 0.9229
29.4667 0.9292
29.4833 0.9353
29.5000 0.9410
29.5167 0.9465
29.5333 0.9518
29.5500 0.9568
29.5667 0.9615
29.5833 0.9659
29.6000 0.9701
29.6167 0.9740
29.6333 0.9777
29.6500 0.9810
29.6667 0.9841
29.6833 0.9869
29.7000 0.9895
29.7167 0.9918
29.7333 0.9938
29.7500 0.9955
29.7667 0.9969
29.7833 0.9981
29.8000 0.9990
29.8167 0.9996
29.8333 0.9999
29.8500 1.0000
29.8667 0.9998
29.8833 0.9993
29.9000 0.9985
29.9167 0.9974
29.9333 0.9961
29.9500 0.9945
29.9667 0.9926
29.9833 0.9905
30.0000 0.9880
30.0167 0.9853
30.0333 0.9823
30.0500 0.9791
30.0667 0.9756
30.0833 0.9718
30.1000 0.9677
30.1167 0.9634
30.1333 0.9588
30.1500 0.9539
30.1667 0.9488
30.1833 0.9434
30.2000 0.9377
30.2167 0.9318
30.2333 0.9256
30.2500 0.9192
30.2667 0.9125
30.2833 0.9055
30.3000 0.8983
30.3167 0.8909
30.3333 0.8832
30.3500 0.8752
30.3667 0.8671
30.3833 0.8586
30.4000 0.8500
30.4167 0.8411
30.4333 0.8319
30.4500 0.8226
30.4667 0.8130
30.4833 0.8032
30.5000 0.7931
30.5167 0.7829
30.5333 0.7724
30.5500 0.7617
30.5667 0.7508
30.5833 0.7397
30.6000 0.7284
30.6167 0.7168
30.6333 0.7051
30.6500 0.6932
30.6667 0.6811
30.6833 0.6688
30.7000 0.6563
30.7167 0.6437
30.7333 0.6308
30.7500 0.6178
30.7667 0.6046
30.7833 0.5912
30.8000 0.5777
30.8167 0.5640
30.8333 0.5502
30.8500 0.5362
30.8667 0.5221
30.8833 0.5078
30.9000 0.4933
30.9167 0.4788
30.9333 0.4641
30.9500 0.4493
30.9667 0.4343
30.9833 0.4192
31.0000 0.4040
31.0167 0.3887
31.0333 0.3733
31.0500 0.3578
31.0667 0.3422
31.0833 0.3265
31.1000 0.3107
31.1167 0.2948
31.1333 0.2788
31.1500 0.2628
31.1667 0.2467
31.1833 0.2305
31.2000 0.2143
31.2167 0.1979
31.2333 0.1816
31.2500 0.1652
31.2667 0.1487
31.2833 0.1322
31.3000 0.1157
31.3167 0.0991
31.3333 0.0825
31.3500 0.0659
31.3667 0.0492
31.3833 0.0326
31.4000 0.0159
31.4167 0.0015
31.4333 0.0348
31.4500 0.0681
31.4667 0.1014
31.4833 0.1347
31.5000 0.1679
31.5167 0.2011
31.5333 0.2343
31.5500 0.2673
31.5667 0.3003
31.5833 0.3333
31.6000 0.3661
31.6167 0.3988
31.6333 0.4314
31.6500 0.4639
31.6667 0.4962
31.6833 0.5285
31.7000 0.5605
31.7167 0.5925
31.7333 0.6242
31.7500 0.6558
31.7667 0.6872
31.7833 0.7184
31.8000 0.7494
31.8167 0.7802
31.8333 0.8108
31.8500 0.8411
31.8667 0.8713
31.8833 0.9011
31.9000 0.9308
31.9167 0.9601
31.9333 0.9893
31.9500 1.0181
31.9667 1.0466
31.9833 1.0749
32.0000 1.1029
32.0167 1.1305
32.0333 1.1578
32.0500 1.1849
32.0667 1.2116
32.0833 1.2379
32.1000 1.2639
32.1167 1.2896
32.1333 1.3149
32.1500 1.3398
32.1667 1.3644
32.1833 1.3885
32.2000 1.4123
32.2167 1.4357
32.2333 1.4587
32.2500 1.4813
32.2667 1.5035
32.2833 1.5253
32.3000 1.5467
32.3167 1.5676
32.3333 1.5881
32.3500 1.6081
32.3667 1.6277
32.3833 1.6468
32.4000 1.6655
32.4167 1.6837
32.4333 1.7015
32.4500 1.7188
32.4667 1.7356
32.4833 1.7519
32.5000 1.7677
32.5167 1.7831
32.5333 1.7979
32.5500 1.8123
32.5667 1.8261
32.5833 1.8395
32.6000 1.8523
32.6167 1.8646
32.6333 1.8764
32.6500 1.8877
32.6667 1.8984
32.6833 1.9087
32.7000 1.9184
32.7167 1.9275
32.7333 1.9361
32.7500 1.9442
32.7667 1.9518
32.7833 1.9588
32.8000 1.9652
32.8167 1.9712
32.8333 1.9765
32.8500 1.9813
32.8667 1.9856
32.8833 1.9893
32.9000 1.9925
32.9167 1.9951
32.9333 1.9972
32.9500 1.9987
32.9667 1.9996
32.9833 2.0000
33.0000 1.9998
33.0167 1.9991
33.0333 1.9978
33.0500 1.9960
33.0667 1.9936
33.0833 1.9907
33.1000 1.9872
33.1167 1.9831
33.1333 1.9785
33.1500 1.9734
33.1667 1.9677
33.1833 1.9615
33.2000 1.9547
33.2167 1.9474
33.2333 1.9395
33.2500 1.9311
33.2667 1.9221
33.2833 1.9127
33.3000 1.9027
33.3167 1.8921
33.3333 1.8811
33.3500 1.8695
33.3667 1.8574
33.3833 1.8448
33.4000 1.8316
33.4167 1.8180
33.4333 1.8038
33.4500 1.7892
33.4667 1.7740
33.4833 1.7584
33.5000 1.7423
33.5167 1.7257
33.5333 1.7086
33.5500 1.6910
33.5667 1.6730
33.5833 1.6545
33.6000 1.6355
33.6167 1.6161
33.6333 1.5963
33.6500 1.5760
33.6667 1.5552
33.6833 1.5340
33.7000 1.5124
33.7167 1.4904
33.7333 1.4680
33.7500 1.4451
33.7667 1.4219
33.7833 1.3983
33.8000 1.3742
33.8167 1.3498
33.8333 1.3251
33.8500 1.2999
33.8667 1.2744
33.8833 1.2485
33.9000 1.2223
33.9167 1.1958
33.9333 1.1689
33.9500 1.1417
33.9667 1.1141
33.9833 1.0863
34.0000 1.0582
34.0167 1.0297
34.0333 1.0010
34.0500 0.9720
34.0667 0.9428
34.0833 0.9132
34.1000 0.8834
34.1167 0.8534
34.1333 0.8232
34.1500 0.7927
34.1667 0.7620
34.1833 0.7310
34.2000 0.6999
34.2167 0.6686
34.2333 0.6371
34.2500 0.6054
34.2667 0.5735
34.2833 0.5415
34.3000 0.5094
34.3167 0.4771
34.3333 0.4446
34.3500 0.4121
34.3667 0.3794
34.3833 0.3466
34.4000 0.3137
34.4167 0.2808
34.4333 0.2477
34.4500 0.2146
34.4667 0.1815
34.4833 0.1482
34.5000 0.1150
34.5167 0.0817
34.5333 0.0484
34.5500 0.0150
34.5667 0.0091
34.5833 0.0258
34.6000 0.0425
34.6167 0.0591
34.6333 0.0757
34.6500 0.0923
34.6667 0.1089
34.6833 0.1255
34.7000 0.1420
34.7167 0.1585
34.7333 0.1749
34.7500 0.1913
34.7667 0.2076
34.7833 0.2239
34.8000 0.2401
34.8167 0.2563
34.8333 0.2723
34.8500 0.2883
34.8667 0.3042
34.8833 0.3201
34.9000 0.3358
34.9167 0.3515
34.9333 0.3670
34.9500 0.3825
34.9667 0.3978
34.9833 0.4131
35.0000 0.4282
35.0167 0.4432
35.0333 0.4581
35.0500 0.4728
35.0667 0.4874
35.0833 0.5019
35.1000 0.5163
35.1167 0.5305
35.1333 0.5445
35.1500 0.5584
35.1667 0.5722
35.1833 0.5858
35.2000 0.5992
35.2167 0.6124
35.2333 0.6255
35.2500 0.6384
35.2667 0.6512
35.2833 0.6637
35.3000 0.6761
35.3167 0.6883
35.3333 0.7003
35.3500 0.7121
35.3667 0.7237
35.3833 0.7351
35.4000 0.7463
35.4167 0.7573
35.4333 0.7681
35.4500 0.7786
35.4667 0.7890
35.4833 0.7991
35.5000 0.8090
35.5167 0.8187
35.5333 0.8282
35.5500 0.8374
35.5667 0.8464
35.5833 0.8551
35.6000 0.8637
35.6167 0.8719
35.6333 0.8800
35.6500 0.8878
35.6667 0.8953
35.6833 0.9026
35.7000 0.9097
35.7167 0.9165
35.7333 0.9230
35.7500 0.9293
35.7667 0.9353
35.7833 0.9411
35.8000 0.9466
35.8167 0.9518
35.8333 0.9568
35.8500 0.9615
35.8667 0.9660
35.8833 0.9701
35.9000 0.9740
35.9167 0.9777
35.9333 0.9811
35.9500 0.9841
35.9667 0.9870
35.9833 0.9895
36.0000 0.9918
36.0167 0.9938
36.0333 0.9955
36.0500 0.9969
36.0667 0.9981
36.0833 0.9990
36.1000 0.9996
36.1167 0.9999
36.1333 1.0000
36.1500 0.9998
36.1667 0.9993
36.1833 0.9985
36.2000 0.9974
36.2167 0.9961
36.2333 0.9945
36.2500 0.9926
36.2667 0.9904
36.2833 0.9880
36.3000 0.9853
36.3167 0.9823
36.3333 0.9791
36.3500 0.9755
36.3667 0.9717
36.3833 0.9677
36.4000 0.9633
36.4167 0.9587
36.4333 0.9538
36.4500 0.9487
36.4667 0.9433
36.4833 0.9376
36.5000 0.9317
36.5167 0.9255
36.5333 0.9191
36.5500 0.9124
36.5667 0.9055
36.5833 0.8983
36.6000 0.8908
36.6167 0.8831
36.6333 0.8752
36.6500 0.8670
36.6667 0.8586
36.6833 0.8499
36.7000 0.8410
36.7167 0.8319
36.7333 0.8225
36.7500 0.8129
36.7667 0.8031
36.7833 0.7930
36.8000 0.7828
36.8167 0.7723
36.8333 0.7616
36.8500 0.7507
36.8667 0.7396
36.8833 0.7283
36.9000 0.7167
36.9167 0.7050
36.9333 0.6931
36.9500 0.6810
36.9667 0.6687
36.9833 0.6562
37.0000 0.6435
37.0167 0.6307
37.0333 0.6177
37.0500 0.6045
37.0667 0.5911
37.0833 0.5776
37.1000 0.5639
37.1167 0.5501
37.1333 0.5361
37.1500 0.5219
37.1667 0.5076
37.1833 0.4932
37.2000 0.4786
37.2167 0.4639
37.2333 0.4491
37.2500 0.4342
37.2667 0.4191
37.2833 0.4039
37.3000 0.3886
37.3167 0.3732
37.3333 0.3577
37.3500 0.3421
37.3667 0.3264
37.3833 0.3106
37.4000 0.2947
37.4167 0.2787
37.4333 0.2627
37.4500 0.2465
37.4667 0.2304
37.4833 0.2141
37.5000 0.1978
37.5167 0.1814
37.5333 0.1650
37.5500 0.1486
37.5667 0.1321
37.5833 0.1155
37.6000 0.0989
37.6167 0.0824
37.6333 0.0657
37.6500 0.0491
37.6667 0.0324
37.6833 0.0158
37.7000 0.0018
37.7167 0.0351
37.7333 0.0684
37.7500 0.1017
37.7667 0.1350
37.7833 0.1682
37.8000 0.2014
37.8167 0.2346
37.8333 0.2676
37.8500 0.3006
37.8667 0.3335
37.8833 0.3664
37.9000 0.3991
37.9167 0.4317
37.9333 0.4642
37.9500 0.4965
37.9667 0.5287
37.9833 0.5608
38.0000 0.5927
38.0167 0.6245
38.0333 0.6561
38.0500 0.6875
38.0667 0.7187
38.0833 0.7497
38.1000 0.7805
38.1167 0.8111
38.1333 0.8414
38.1500 0.8715
38.1667 0.9014
38.1833 0.9310
38.2000 0.9604
38.2167 0.9895
38.2333 1.0183
38.2500 1.0469
38.2667 1.0751
38.2833 1.1031
38.3000 1.1308
38.3167 1.1581
38.3333 1.1851
38.3500 1.2118
38.3667 1.2381
38.3833 1.2641
38.4000 1.2898
38.4167 1.3151
38.4333 1.3400
38.4500 1.3646
38.4667 1.3888
38.4833 1.4125
38.5000 1.4359
38.5167 1.4590
38.5333 1.4815
38.5500 1.5037
38.5667 1.5255
38.5833 1.5468
38.6000 1.5678
38.6167 1.5882
38.6333 1.6083
38.6500 1.6279
38.6667 1.6470
38.6833 1.6657
38.7000 1.6839
38.7167 1.7017
38.7333 1.7189
38.7500 1.7357
38.7667 1.7520
38.7833 1.7679
38.8000 1.7832
38.8167 1.7981
38.8333 1.8124
38.8500 1.8263
38.8667 1.8396
38.8833 1.8524
38.9000 1.8647
38.9167 1.8765
38.9333 1.8878
38.9500 1.8985
38.9667 1.9087
38.9833 1.9184
39.0000 1.9276
39.0167 1.9362
39.0333 1.9443
39.0500 1.9518
39.0667 1.9588
39.0833 1.9653
39.1000 1.9712
39.1167 1.9766
39.1333 1.9814
39.1500 1.9856
39.1667 1.9894
39.1833 1.9925
39.2000 1.9951
39.2167 1.9972
39.2333 1.9987
39.2500 1.9996
39.2667 2.0000
39.2833 1.9998
39.3000 1.9991
39.3167 1.9978
39.3333 1.9960
39.3500 1.9936
39.3667 1.9906
39.3833 1.9871
39.4000 1.9831
39.4167 1.9785
39.4333 1.9734
39.4500 1.9677
39.4667 1.9614
39.4833 1.9546
39.5000 1.9473
39.5167 1.9394
39.5333 1.9310
39.5500 1.9221
39.5667 1.9126
39.5833 1.9026
39.6000 1.8920
39.6167 1.8810
39.6333 1.8694
39.6500 1.8573
39.6667 1.8446
39.6833 1.8315
39.7000 1.8179
39.7167 1.8037
39.7333 1.7891
39.7500 1.7739
39.7667 1.7583
39.7833 1.7421
39.8000 1.7255
39.8167 1.7084
39.8333 1.6909
39.8500 1.6728
39.8667 1.6543
39.8833 1.6354
39.9000 1.6159
39.9167 1.5961
39.9333 1.5758
39.9500 1.5550
39.9667 1.5339
39.9833 1.5122
40.0000 1.4902
40.0167 1.4678
40.0333 1.4449
40.0500 1.4217
40.0667 1.3981
40.0833 1.3740
40.1000 1.3496
40.1167 1.3248
40.1333 1.2997
40.1500 1.2742
40.1667 1.2483
40.1833 1.2221
40.2000 1.1955
40.2167 1.1686
40.2333 1.1414
40.2500 1.1139
40.2667 1.0861
40.2833 1.0579
40.3000 1.0295
40.3167 1.0008
40.3333 0.9718
40.3500 0.9425
40.3667 0.9130
40.3833 0.8832
40.4000 0.8532
40.4167 0.8229
40.4333 0.7924
40.4500 0.7617
40.4667 0.7308
40.4833 0.6996
40.5000 0.6683
40.5167 0.6368
40.5333 0.6051
40.5500 0.5733
40.5667 0.5412
40.5833 0.5091
40.6000 0.4768
40.6167 0.4443
40.6333 0.4118
40.6500 0.3791
40.6667 0.3463
40.6833 0.3134
40.7000 0.2805
40.7167 0.2474
40.7333 0.2143
40.7500 0.1812
40.7667 0.1479
40.7833 0.1147
40.8000 0.0814
40.8167 0.0481
40.8333 0.0147
40.8500 0.0093
40.8667 0.0260
40.8833 0.0426
40.9000 0.0593
40.9167 0.0759
40.9333 0.0925
40.9500 0.1091
40.9667 0.1256
40.9833 0.1421
41.0000 0.1586
41.0167 0.1751
41.0333 0.1914
41.0500 0.2078
41.0667 0.2240
41.0833 0.2403
41.1000 0.2564
41.1167 0.2725
41.1333 0.2885
41.1500 0.3044
41.1667 0.3202
41.1833 0.3360
41.2000 0.3516
41.2167 0.3672
41.2333 0.3826
41.2500 0.3980
41.2667 0.4132
41.2833 0.4283
41.3000 0.4433
41.3167 0.4582
41.3333 0.4729
41.3500 0.4876
41.3667 0.5020
41.3833 0.5164
41.4000 0.5306
41.4167 0.5446
41.4333 0.5585
41.4500 0.5723
41.4667 0.5859
41.4833 0.5993
41.5000 0.6126
41.5167 0.6256
41.5333 0.6386
41.5500 0.6513
41.5667 0.6639
41.5833 0.6762
41.6000 0.6884
41.6167 0.7004
41.6333 0.7122
41.6500 0.7238
41.6667 0.7352
41.6833 0.7464
41.7000 0.7574
41.7167 0.7682
41.7333 0.7787
41.7500 0.7891
41.7667 0.7992
41.7833 0.8091
41.8000 0.8188
41.8167 0.8282
41.8333 0.8375
41.8500 0.8465
41.8667 0.8552
41.8833 0.8637
41.9000 0.8720
41.9167 0.8800
41.9333 0.8878
41.9500 0.8954
41.9667 0.9027
41.9833 0.9097
42.0000 0.9165
42.0167 0.9231
42.0333 0.9293
42.0500 0.9354
42.0667 0.9411
42.0833 0.9466
42.1000 0.9519
42.1167 0.9569
42.1333 0.9616
42.1500 0.9660
42.1667 0.9702
42.1833 0.9741
42.2000 0.9777
42.2167 0.9811
42.2333 0.9842
42.2500 0.9870
42.2667 0.9895
42.2833 0.9918
42.3000 0.9938
42.3167 0.9955
42.3333 0.9969
42.3500 0.9981
42.3667 0.9990
42.3833 0.9996
42.4000 0.9999
42.4167 1.0000
42.4333 0.9998
42.4500 0.9993
42.4667 0.9985
42.4833 0.9974
42.5000 0.9961
42.5167 0.9945
42.5333 0.9926
42.5500 0.9904
42.5667 0.9880
42.5833 0.9853
42.6000 0.9823
42.6167 0.9790
42.6333 0.9755
42.6500 0.9717
42.6667 0.9676
42.6833 0.9633
42.7000 0.9587
42.7167 0.9538
42.7333 0.9487
42.7500 0.9433
42.7667 0.9376
42.7833 0.9317
42.8000 0.9255
42.8167 0.9190
42.8333 0.9123
42.8500 0.9054
42.8667 0.8982
42.8833 0.8907
42.9000 0.8830
42.9167 0.8751
42.9333 0.8669
42.9500 0.8585
42.9667 0.8498
42.9833 0.8409
43.0000 0.8318
43.0167 0.8224
43.0333 0.8128
43.0500 0.8030
43.0667 0.7929
43.0833 0.7827
43.1000 0.7722
43.1167 0.7615
43.1333 0.7506
43.1500 0.7395
43.1667 0.7282
43.1833 0.7166
43.2000 0.7049
43.2167 0.6930
43.2333 0.6809
43.2500 0.6686
43.2667 0.6561
43.2833 0.6434
43.3000 0.6306
43.3167 0.6176
43.3333 0.6044
43.3500 0.5910
43.3667 0.5775
43.3833 0.5638
43.4000 0.5499
43.4167 0.5359
43.4333 0.5218
43.4500 0.5075
43.4667 0.4931
43.4833 0.4785
43.5000 0.4638
43.5167 0.4490
43.5333 0.4340
43.5500 0.4190
43.5667 0.4038
43.5833 0.3885
43.6000 0.3731
43.6167 0.3575
43.6333 0.3419
43.6500 0.3262
43.6667 0.3104
43.6833 0.2945
43.7000 0.2786
43.7167 0.2625
43.7333 0.2464
43.7500 0.2302
43.7667 0.2140
43.7833 0.1977
43.8000 0.1813
43.8167 0.1649
43.8333 0.1484
43.8500 0.1319
43.8667 0.1154
43.8833 0.0988
43.9000 0.0822
43.9167 0.0656
43.9333 0.0489
43.9500 0.0323
43.9667 0.0156
43.9833 0.0021
44.0000 0.0354
44.0167 0.0687
44.0333 0.1020
44.0500 0.1353
44.0667 0.1685
44.0833 0.2017
44.1000 0.2349
44.1167 0.2679
44.1333 0.3009
44.1500 0.3338
44.1667 0.3667
44.1833 0.3994
44.2000 0.4320
44.2167 0.4645
44.2333 0.4968
44.2500 0.5290
44.2667 0.5611
44.2833 0.5930
44.3000 0.6248
44.3167 0.6563
44.3333 0.6877
44.3500 0.7189
44.3667 0.7499
44.3833 0.7807
44.4000 0.8113
44.4167 0.8417
44.4333 0.8718
44.4500 0.9017
44.4667 0.9313
44.4833 0.9607
44.5000 0.9898
44.5167 1.0186
44.5333 1.0471
44.5500 1.0754
44.5667 1.1033
44.5833 1.1310
44.6000 1.1583
44.6167 1.1853
44.6333 1.2120
44.6500 1.2384
44.6667 1.2644
44.6833 1.2900
44.7000 1.3153
44.7167 1.3402
44.7333 1.3648
44.7500 1.3890
44.7667 1.4128
44.7833 1.4362
44.8000 1.4592
44.8167 1.4817
44.8333 1.5039
44.8500 1.5257
44.8667 1.5470
44.8833 1.5679
44.9000 1.5884
44.9167 1.6084
44.9333 1.6280
44.9500 1.6472
44.9667 1.6658
44.9833 1.6841
45.0000 1.7018
45.0167 1.7191
45.0333 1.7359
45.0500 1.7522
45.0667 1.7680
45.0833 1.7834
45.1000 1.7982
45.1167 1.8125
45.1333 1.8264
45.1500 1.8397
45.1667 1.8525
45.1833 1.8648
45.2000 1.8766
45.2167 1.8879
45.2333 1.8986
45.2500 1.9088
45.2667 1.9185
45.2833 1.9277
45.3000 1.9363
45.3167 1.9444
45.3333 1.9519
45.3500 1.9589
45.3667 1.9653
45.3833 1.9713
45.4000 1.9766
45.4167 1.9814
45.4333 1.9857
45.4500 1.9894
45.4667 1.9925
45.4833 1.9951
45.5000 1.9972
45.5167 1.9987
45.5333 1.9996
45.5500 2.0000
45.5667 1.9998
45.5833 1.9991
45.6000 1.9978
45.6167 1.9960
45.6333 1.9936
45.6500 1.9906
45.6667 1.9871
45.6833 1.9831
45.7000 1.9785
45.7167 1.9733
45.7333 1.9676
45.7500 1.9614
45.7667 1.9546
45.7833 1.9472
45.8000 1.9393
45.8167 1.9309
45.8333 1.9220
45.8500 1.9125
45.8667 1.9025
45.8833 1.8919
45.9000 1.8809
45.9167 1.8693
45.9333 1.8572
45.9500 1.8445
45.9667 1.8314
45.9833 1.8177
46.0000 1.8036
46.0167 1.7889
46.0333 1.7738
46.0500 1.7581
46.0667 1.7420
46.0833 1.7254
46.1000 1.7083
46.1167 1.6907
46.1333 1.6727
46.1500 1.6542
46.1667 1.6352
46.1833 1.6158
46.2000 1.5959
46.2167 1.5756
46.2333 1.5548
46.2500 1.5337
46.2667 1.5121
46.2833 1.4900
46.3000 1.4676
46.3167 1.4447
46.3333 1.4215
46.3500 1.3978
46.3667 1.3738
46.3833 1.3494
46.4000 1.3246
46.4167 1.2995
46.4333 1.2739
46.4500 1.2481
46.4667 1.2218
46.4833 1.1953
46.5000 1.1684
46.5167 1.1412
46.5333 1.1136
46.5500 1.0858
46.5667 1.0577
46.5833 1.0292
46.6000 1.0005
46.6167 0.9715
46.6333 0.9422
46.6500 0.9127
46.6667 0.8829
46.6833 0.8529
46.7000 0.8226
46.7167 0.7921
46.7333 0.7614
46.7500 0.7305
46.7667 0.6993
46.7833 0.6680
46.8000 0.6365
46.8167 0.6048
46.8333 0.5730
46.8500 0.5410
46.8667 0.5088
46.8833 0.4765
46.9000 0.4440
46.9167 0.4115
46.9333 0.3788
46.9500 0.3460
46.9667 0.3132
46.9833 0.2802
47.0000 0.2471
47.0167 0.2140
47.0333 0.1809
47.0500 0.1476
47.0667 0.1144
47.0833 0.0811
47.1000 0.0478
47.1167 0.0144
47.1333 0.0094
47.1500 0.0261
47.1667 0.0428
47.1833 0.0594
47.2000 0.0760
47.2167 0.0926
47.2333 0.1092
47.2500 0.1258
47.2667 0.1423
47.2833 0.1588
47.3000 0.1752
47.3167 0.1916
47.3333 0.2079
47.3500 0.2242
47.3667 0.2404
47.3833 0.2565
47.4000 0.2726
47.4167 0.2886
47.4333 0.3045
47.4500 0.3204
47.4667 0.3361
47.4833 0.3518
47.5000 0.3673
47.5167 0.3828
47.5333 0.3981
47.5500 0.4133
47.5667 0.4285
47.5833 0.4434
47.6000 0.4583
47.6167 0.4731
47.6333 0.4877
47.6500 0.5022
47.6667 0.5165
47.6833 0.5307
47.7000 0.5448
47.7167 0.5587
47.7333 0.5724
47.7500 0.5860
47.7667 0.5994
47.7833 0.6127
47.8000 0.6258
47.8167 0.6387
47.8333 0.6514
47.8500 0.6640
47.8667 0.6763
47.8833 0.6885
47.9000 0.7005
47.9167 0.7123
47.9333 0.7239
47.9500 0.7353
47.9667 0.7465
47.9833 0.7575
48.0000 0.7683
48.0167 0.7788
48.0333 0.7892
48.0500 0.7993
48.0667 0.8092
48.0833 0.8189
48.1000 0.8283
48.1167 0.8375
48.1333 0.8465
48.1500 0.8553
48.1667 0.8638
48.1833 0.8721
48.2000 0.8801
48.2167 0.8879
48.2333 0.8955
48.2500 0.9027
48.2667 0.9098
48.2833 0.9166
48.3000 0.9231
48.3167 0.9294
48.3333 0.9354
48.3500 0.9412
48.3667 0.9467
48.3833 0.9519
48.4000 0.9569
48.4167 0.9616
48.4333 0.9660
48.4500 0.9702
48.4667 0.9741
48.4833 0.9777
48.5000 0.9811
48.5167 0.9842
48.5333 0.9870
48.5500 0.9896
48.5667 0.9918
48.5833 0.9938
48.6000 0.9955
48.6167 0.9970
48.6333 0.9981
48.6500 0.9990
48.6667 0.9996
48.6833 0.9999
48.7000 1.0000
48.7167 0.9998
48.7333 0.9993
48.7500 0.9985
48.7667 0.9974
48.7833 0.9961
48.8000 0.9945
48.8167 0.9926
48.8333 0.9904
48.8500 0.9880
48.8667 0.9852
48.8833 0.9823
48.9000 0.9790
48.9167 0.9755
48.9333 0.9717
48.9500 0.9676
48.9667 0.9632
48.9833 0.9586
49.0000 0.9538
49.0167 0.9486
49.0333 0.9432
49.0500 0.9375
49.0667 0.9316
49.0833 0.9254
49.1000 0.9190
49.1167 0.9123
49.1333 0.9053
49.1500 0.8981
49.1667 0.8907
49.1833 0.8830
49.2000 0.8750
49.2167 0.8668
49.2333 0.8584
49.2500 0.8497
49.2667 0.8408
49.2833 0.8317
49.3000 0.8223
49.3167 0.8127
49.3333 0.8029
49.3500 0.7929
49.3667 0.7826
49.3833 0.7721
49.4000 0.7614
49.4167 0.7505
49.4333 0.7394
49.4500 0.7281
49.4667 0.7165
49.4833 0.7048
49.5000 0.6929
49.5167 0.6808
49.5333 0.6685
49.5500 0.6560
49.5667 0.6433
49.5833 0.6305
49.6000 0.6174
49.6167 0.6042
49.6333 0.5909
49.6500 0.5774
49.6667 0.5637
49.6833 0.5498
49.7000 0.5358
49.7167 0.5217
49.7333 0.5074
49.7500 0.4930
49.7667 0.4784
49.7833 0.4637
49.8000 0.4489
49.8167 0.4339
49.8333 0.4188
49.8500 0.4036
49.8667 0.3883
49.8833 0.3729
49.9000 0.3574
49.9167 0.3418
49.9333 0.3261
49.9500 0.3103
49.9667 0.2944
49.9833 0.2784
50.0000 0.2624
50.0167 0.2463
50.0333 0.2301
50.0500 0.2138
50.0667 0.1975
50.0833 0.1811
50.1000 0.1647
50.1167 0.1483
50.1333 0.1318
50.1500 0.1152
50.1667 0.0987
50.1833 0.0821
50.2000 0.0654
50.2167 0.0488
50.2333 0.0321
50.2500 0.0155
50.2667 0.0024
50.2833 0.0357
50.3000 0.0690
50.3167 0.1023
50.3333 0.1356
50.3500 0.1688
50.3667 0.2020
50.3833 0.2352
50.4000 0.2682
50.4167 0.3012
50.4333 0.3341
50.4500 0.3669
50.4667 0.3997
50.4833 0.4323
50.5000 0.4647
50.5167 0.4971
50.5333 0.5293
50.5500 0.5614
50.5667 0.5933
50.5833 0.6251
50.6000 0.6566
50.6167 0.6880
50.6333 0.7192
50.6500 0.7502
50.6667 0.7810
50.6833 0.8116
50.7000 0.8419
50.7167 0.8721
50.7333 0.9019
50.7500 0.9316
50.7667 0.9609
50.7833 0.9900
50.8000 1.0189
50.8167 1.0474
50.8333 1.0756
50.8500 1.1036
50.8667 1.1312
50.8833 1.1586
50.9000 1.1856
50.9167 1.2123
50.9333 1.2386
50.9500 1.2646
50.9667 1.2902
50.9833 1.3155
51.0000 1.3405
51.0167 1.3650
51.0333 1.3892
51.0500 1.4130
51.0667 1.4364
51.0833 1.4594
51.1000 1.4819
51.1167 1.5041
51.1333 1.5259
51.1500 1.5472
51.1667 1.5681
51.1833 1.5886
51.2000 1.6086
51.2167 1.6282
51.2333 1.6473
51.2500 1.6660
51.2667 1.6842
51.2833 1.7020
51.3000 1.7192
51.3167 1.7360
51.3333 1.7523
51.3500 1.7682
51.3667 1.7835
51.3833 1.7983
51.4000 1.8127
51.4167 1.8265
51.4333 1.8398
51.4500 1.8526
51.4667 1.8649
51.4833 1.8767
51.5000 1.8880
51.5167 1.8987
51.5333 1.9089
51.5500 1.9186
51.5667 1.9277
51.5833 1.9364
51.6000 1.9444
51.6167 1.9520
51.6333 1.9590
51.6500 1.9654
51.6667 1.9713
51.6833 1.9767
51.7000 1.9815
51.7167 1.9857
51.7333 1.9894
51.7500 1.9926
51.7667 1.9952
51.7833 1.9972
51.8000 1.9987
51.8167 1.9996
51.8333 2.0000
51.8500 1.9998
51.8667 1.9991
51.8833 1.9978
51.9000 1.9959
51.9167 1.9935
51.9333 1.9906
51.9500 1.9871
51.9667 1.9830
51.9833 1.9784
52.0000 1.9733
52.0167 1.9675
52.0333 1.9613
52.0500 1.9545
52.0667 1.9472
52.0833 1.9393
52.1000 1.9309
52.1167 1.9219
52.1333 1.9124
52.1500 1.9024
52.1667 1.8918
52.1833 1.8808
52.2000 1.8692
52.2167 1.8570
52.2333 1.8444
52.2500 1.8313
52.2667 1.8176
52.2833 1.8034
52.3000 1.7888
52.3167 1.7736
52.3333 1.7580
52.3500 1.7418
52.3667 1.7252
52.3833 1.7081
52.4000 1.6905
52.4167 1.6725
52.4333 1.6540
52.4500 1.6350
52.4667 1.6156
52.4833 1.5957
52.5000 1.5754
52.5167 1.5547
52.5333 1.5335
52.5500 1.5119
52.5667 1.4898
52.5833 1.4674
52.6000 1.4445
52.6167 1.4213
52.6333 1.3976
52.6500 1.3736
52.6667 1.3492
52.6833 1.3244
52.7000 1.2992
52.7167 1.2737
52.7333 1.2478
52.7500 1.2216
52.7667 1.1950
52.7833 1.1682
52.8000 1.1409
52.8167 1.1134
52.8333 1.0856
52.8500 1.0574
52.8667 1.0290
52.8833 1.0002
52.9000 0.9712
52.9167 0.9420
52.9333 0.9124
52.9500 0.8827
52.9667 0.8526
52.9833 0.8223
53.0000 0.7919
53.0167 0.7611
53.0333 0.7302
53.0500 0.6991
53.0667 0.6677
53.0833 0.6362
53.1000 0.6045
53.1167 0.5727
53.1333 0.5407
53.1500 0.5085
53.1667 0.4762
53.1833 0.4438
53.2000 0.4112
53.2167 0.3785
53.2333 0.3457
53.2500 0.3129
53.2667 0.2799
53.2833 0.2469
53.3000 0.2137
53.3167 0.1806
53.3333 0.1473
53.3500 0.1141
53.3667 0.0808
53.3833 0.0475
53.4000 0.0142
53.4167 0.0096
53.4333 0.0263
53.4500 0.0429
53.4667 0.0596
53.4833 0.0762
53.5000 0.0928
53.5167 0.1094
53.5333 0.1259
53.5500 0.1424
53.5667 0.1589
53.5833 0.1753
53.6000 0.1917
53.6167 0.2081
53.6333 0.2243
53.6500 0.2405
53.6667 0.2567
53.6833 0.2728
53.7000 0.2888
53.7167 0.3047
53.7333 0.3205
53.7500 0.3362
53.7667 0.3519
53.7833 0.3674
53.8000 0.3829
53.8167 0.3982
53.8333 0.4135
53.8500 0.4286
53.8667 0.4436
53.8833 0.4585
53.9000 0.4732
53.9167 0.4878
53.9333 0.5023
53.9500 0.5166
53.9667 0.5308
53.9833 0.5449
54.0000 0.5588
54.0167 0.5725
54.0333 0.5861
54.0500 0.5995
54.0667 0.6128
54.0833 0.6259
54.1000 0.6388
54.1167 0.6515
54.1333 0.6641
54.1500 0.6764
54.1667 0.6886
54.1833 0.7006
54.2000 0.7124
54.2167 0.7240
54.2333 0.7354
54.2500 0.7466
54.2667 0.7576
54.2833 0.7683
54.3000 0.7789
54.3167 0.7893
54.3333 0.7994
54.3500 0.8093
54.3667 0.8190
54.3833 0.8284
54.4000 0.8376
54.4167 0.8466
54.4333 0.8554
54.4500 0.8639
54.4667 0.8722
54.4833 0.8802
54.5000 0.8880
54.5167 0.8955
54.5333 0.9028
54.5500 0.9099
54.5667 0.9166
54.5833 0.9232
54.6000 0.9295
54.6167 0.9355
54.6333 0.9412
54.6500 0.9467
54.6667 0.9520
54.6833 0.9569
54.7000 0.9616
54.7167 0.9661
54.7333 0.9702
54.7500 0.9741
54.7667 0.9778
54.7833 0.9811
54.8000 0.9842
54.8167 0.9870
54.8333 0.9896
54.8500 0.9918
54.8667 0.9938
54.8833 0.9955
54.9000 0.9970
54.9167 0.9981
54.9333 0.9990
54.9500 0.9996
54.9667 0.9999
54.9833 1.0000
55.0000 0.9998
55.0167 0.9992
55.0333 0.9985
55.0500 0.9974
55.0667 0.9961
55.0833 0.9944
55.1000 0.9926
55.1167 0.9904
55.1333 0.9879
55.1500 0.9852
55.1667 0.9822
55.1833 0.9790
55.2000 0.9754
55.2167 0.9716
55.2333 0.9675
55.2500 0.9632
55.2667 0.9586
55.2833 0.9537
55.3000 0.9486
55.3167 0.9432
55.3333 0.9375
55.3500 0.9316
55.3667 0.9254
55.3833 0.9189
55.4000 0.9122
55.4167 0.9053
55.4333 0.8981
55.4500 0.8906
55.4667 0.8829
55.4833 0.8750
55.5000 0.8668
55.5167 0.8583
55.5333 0.8497
55.5500 0.8408
55.5667 0.8316
55.5833 0.8222
55.6000 0.8126
55.6167 0.8028
55.6333 0.7928
55.6500 0.7825
55.6667 0.7720
55.6833 0.7613
55.7000 0.7504
55.7167 0.7393
55.7333 0.7280
55.7500 0.7164
55.7667 0.7047
55.7833 0.6928
55.8000 0.6807
55.8167 0.6684
55.8333 0.6559
55.8500 0.6432
55.8667 0.6303
55.8833 0.6173
55.9000 0.6041
55.9167 0.5908
55.9333 0.5772
55.9500 0.5635
55.9667 0.5497
55.9833 0.5357
56.0000 0.5216
56.0167 0.5073
56.0333 0.4928
56.0500 0.4783
56.0667 0.4636
56.0833 0.4487
56.1000 0.4338
56.1167 0.4187
56.1333 0.4035
56.1500 0.3882
56.1667 0.3728
56.1833 0.3573
56.2000 0.3416
56.2167 0.3259
56.2333 0.3101
56.2500 0.2942
56.2667 0.2783
56.2833 0.2622
56.3000 0.2461
56.3167 0.2299
56.3333 0.2137
56.3500 0.1974
56.3667 0.1810
56.3833 0.1646
56.4000 0.1481
56.4167 0.1316
56.4333 0.1151
56.4500 0.0985
56.4667 0.0819
56.4833 0.0653
56.5000 0.0486
56.5167 0.0320
56.5333 0.0153
56.5500 0.0027
56.5667 0.0360
56.5833 0.0693
56.6000 0.1026
56.6167 0.1359
56.6333 0.1691
56.6500 0.2023
56.6667 0.2355
56.6833 0.2685
56.7000 0.3015
56.7167 0.3344
56.7333 0.3672
56.7500 0.3999
56.7667 0.4326
56.7833 0.4650
56.8000 0.4974
56.8167 0.5296
56.8333 0.5617
56.8500 0.5936
56.8667 0.6253
56.8833 0.6569
56.9000 0.6883
56.9167 0.7195
56.9333 0.7505
56.9500 0.7813
56.9667 0.8119
56.9833 0.8422
57.0000 0.8723
57.0167 0.9022
57.0333 0.9318
57.0500 0.9612
57.0667 0.9903
57.0833 1.0191
57.1000 1.0476
57.1167 1.0759
57.1333 1.1038
57.1500 1.1315
57.1667 1.1588
57.1833 1.1858
57.2000 1.2125
57.2167 1.2388
57.2333 1.2648
57.2500 1.2905
57.2667 1.3158
57.2833 1.3407
57.3000 1.3652
57.3167 1.3894
57.3333 1.4132
57.3500 1.4366
57.3667 1.4596
57.3833 1.4821
57.4000 1.5043
57.4167 1.5261
57.4333 1.5474
57.4500 1.5683
57.4667 1.5888
57.4833 1.6088
57.5000 1.6284
57.5167 1.6475
57.5333 1.6662
57.5500 1.6844
57.5667 1.7021
57.5833 1.7194
57.6000 1.7362
57.6167 1.7525
57.6333 1.7683
57.6500 1.7836
57.6667 1.7985
57.6833 1.8128
57.7000 1.8266
57.7167 1.8399
57.7333 1.8527
57.7500 1.8650
57.7667 1.8768
57.7833 1.8881
57.8000 1.8988
57.8167 1.9090
57.8333 1.9187
57.8500 1.9278
57.8667 1.9364
57.8833 1.9445
57.9000 1.9520
57.9167 1.9590
57.9333 1.9655
57.9500 1.9714
57.9667 1.9767
57.9833 1.9815
58.0000 1.9857
58.0167 1.9894
58.0333 1.9926
58.0500 1.9952
58.0667 1.9972
58.0833 1.9987
58.1000 1.9996
58.1167 2.0000
58.1333 1.9998
58.1500 1.9991
58.1667 1.9978
58.1833 1.9959
58.2000 1.9935
58.2167 1.9906
58.2333 1.9870
58.2500 1.9830
58.2667 1.9784
58.2833 1.9732
58.3000 1.9675
58.3167 1.9612
58.3333 1.9544
58.3500 1.9471
58.3667 1.9392
58.3833 1.9308
58.4000 1.9218
58.4167 1.9123
58.4333 1.9023
58.4500 1.8917
58.4667 1.8807
58.4833 1.8691
58.5000 1.8569
58.5167 1.8443
58.5333 1.8311
58.5500 1.8175
58.5667 1.8033
58.5833 1.7887
58.6000 1.7735
58.6167 1.7578
58.6333 1.7417
58.6500 1.7251
58.6667 1.7080
58.6833 1.6904
58.7000 1.6723
58.7167 1.6538
58.7333 1.6349
58.7500 1.6154
58.7667 1.5955
58.7833 1.5752
58.8000 1.5545
58.8167 1.5333
58.8333 1.5117
58.8500 1.4896
58.8667 1.4672
58.8833 1.4443
58.9000 1.4211
58.9167 1.3974
58.9333 1.3734
58.9500 1.3490
58.9667 1.3242
58.9833 1.2990
59.0000 1.2735
59.0167 1.2476
59.0333 1.2214
59.0500 1.1948
59.0667 1.1679
59.0833 1.1407
59.1000 1.1132
59.1167 1.0853
59.1333 1.0572
59.1500 1.0287
59.1667 1.0000
59.1833 0.9710
59.2000 0.9417
59.2167 0.9122
59.2333 0.8824
59.2500 0.8524
59.2667 0.8221
59.2833 0.7916
59.3000 0.7609
59.3167 0.7299
59.3333 0.6988
59.3500 0.6675
59.3667 0.6360
59.3833 0.6043
59.4000 0.5724
59.4167 0.5404
59.4333 0.5082
59.4500 0.4759
59.4667 0.4435
59.4833 0.4109
59.5000 0.3782
59.5167 0.3454
59.5333 0.3126
59.5500 0.2796
59.5667 0.2466
59.5833 0.2134
59.6000 0.1803
59.6167 0.1471
59.6333 0.1138
59.6500 0.0805
59.6667 0.0472
59.6833 0.0139
59.7000 0.0097
59.7167 0.0264
59.7333 0.0431
59.7500 0.0597
59.7667 0.0763
59.7833 0.0929
59.8000 0.1095
59.8167 0.1261
59.8333 0.1426
59.8500 0.1591
59.8667 0.1755
59.8833 0.1919
59.9000 0.2082
59.9167 0.2245
59.9333 0.2407
59.9500 0.2568
59.9667 0.2729
59.9833 0.2889
60.0000 0.3048
60.0167 0.3206
60.0333 0.3364
60.0500 0.3520
60.0667 0.3676
60.0833 0.3830
60.1000 0.3984
60.1167 0.4136
60.1333 0.4287
60.1500 0.4437
60.1667 0.4586
60.1833 0.4733
60.2000 0.4879
60.2167 0.5024
60.2333 0.5168
60.2500 0.5310
60.2667 0.5450
60.2833 0.5589
60.3000 0.5727
60.3167 0.5862
60.3333 0.5997
60.3500 0.6129
60.3667 0.6260
60.3833 0.6389
60.4000 0.6516
60.4167 0.6642
60.4333 0.6766
60.4500 0.6887
60.4667 0.7007
60.4833 0.7125
60.5000 0.7241
60.5167 0.7355
60.5333 0.7467
60.5500 0.7577
60.5667 0.7684
60.5833 0.7790
60.6000 0.7893
60.6167 0.7995
60.6333 0.8094
60.6500 0.8190
60.6667 0.8285
60.6833 0.8377
60.7000 0.8467
60.7167 0.8554
60.7333 0.8640
60.7500 0.8722
60.7667 0.8803
60.7833 0.8880
60.8000 0.8956
60.8167 0.9029
60.8333 0.9099
60.8500 0.9167
60.8667 0.9232
60.8833 0.9295
60.9000 0.9355
60.9167 0.9413
60.9333 0.9468
60.9500 0.9520
60.9667 0.9570
60.9833 0.9617
61.0000 0.9661
61.0167 0.9703
61.0333 0.9742
61.0500 0.9778
61.0667 0.9812
61.0833 0.9842
61.1000 0.9871
61.1167 0.9896
61.1333 0.9919
61.1500 0.9938
61.1667 0.9955
61.1833 0.9970
61.2000 0.9981
61.2167 0.9990
61.2333 0.9996
61.2500 0.9999
61.2667 1.0000
61.2833 0.9998
61.3000 0.9992
61.3167 0.9985
61.3333 0.9974
61.3500 0.9960
61.3667 0.9944
61.3833 0.9925
61.4000 0.9904
61.4167 0.9879
61.4333 0.9852
61.4500 0.9822
61.4667 0.9789
61.4833 0.9754
61.5000 0.9716
61.5167 0.9675
61.5333 0.9632
61.5500 0.9585
61.5667 0.9537
61.5833 0.9485
61.6000 0.9431
61.6167 0.9374
61.6333 0.9315
61.6500 0.9253
61.6667 0.9189
61.6833 0.9122
61.7000 0.9052
61.7167 0.8980
61.7333 0.8905
61.7500 0.8828
61.7667 0.8749
61.7833 0.8667
61.8000 0.8583
61.8167 0.8496
61.8333 0.8407
61.8500 0.8315
61.8667 0.8222
61.8833 0.8126
61.9000 0.8027
61.9167 0.7927
61.9333 0.7824
61.9500 0.7719
61.9667 0.7612
61.9833 0.7503
62.0000 0.7392
62.0167 0.7279
62.0333 0.7163
62.0500 0.7046
62.0667 0.6927
62.0833 0.6806
62.1000 0.6682
62.1167 0.6558
62.1333 0.6431
62.1500 0.6302
62.1667 0.6172
62.1833 0.6040
62.2000 0.5906
62.2167 0.5771
62.2333 0.5634
62.2500 0.5496
62.2667 0.5356
62.2833 0.5214
62.3000 0.5071
62.3167 0.4927
62.3333 0.4781
62.3500 0.4634
62.3667 0.4486
62.3833 0.4336
62.4000 0.4186
62.4167 0.4034
62.4333 0.3881
62.4500 0.3726
62.4667 0.3571
62.4833 0.3415
62.5000 0.3258
62.5167 0.3100
62.5333 0.2941
62.5500 0.2781
62.5667 0.2621
62.5833 0.2460
62.6000 0.2298
62.6167 0.2135
62.6333 0.1972
62.6500 0.1809
62.6667 0.1644
62.6833 0.1480
62.7000 0.1315
62.7167 0.1149
62.7333 0.0984
62.7500 0.0818
62.7667 0.0651
62.7833 0.0485
62.8000 0.0318
62.8167 0.0152
62.8333 0.0030
62.8500 0.0363
62.8667 0.0696
62.8833 0.1029
62.9000 0.1362
62.9167 0.1694
62.9333 0.2026
62.9500 0.2357
62.9667 0.2688
62.9833 0.3018
63.0000 0.3347
63.0167 0.3675
63.0333 0.4002
63.0500 0.4328
63.0667 0.4653
63.0833 0.4977
63.1000 0.5299
63.1167 0.5620
63.1333 0.5939
63.1500 0.6256
63.1667 0.6572
63.1833 0.6886
63.2000 0.7198
63.2167 0.7508
63.2333 0.7816
63.2500 0.8121
63.2667 0.8425
63.2833 0.8726
63.3000 0.9025
63.3167 0.9321
63.3333 0.9614
63.3500 0.9905
63.3667 1.0194
63.3833 1.0479
63.4000 1.0761
63.4167 1.1041
63.4333 1.1317
63.4500 1.1591
63.4667 1.1861
63.4833 1.2127
63.5000 1.2391
63.5167 1.2651
63.5333 1.2907
63.5500 1.3160
63.5667 1.3409
63.5833 1.3654
63.6000 1.3896
63.6167 1.4134
63.6333 1.4368
63.6500 1.4598
63.6667 1.4823
63.6833 1.5045
63.7000 1.5263
63.7167 1.5476
63.7333 1.5685
63.7500 1.5890
63.7667 1.6090
63.7833 1.6286
63.8000 1.6477
63.8167 1.6663
63.8333 1.6845
63.8500 1.7023
63.8667 1.7195
63.8833 1.7363
63.9000 1.7526
63.9167 1.7684
63.9333 1.7838
63.9500 1.7986
63.9667 1.8129
63.9833 1.8267
64.0000 1.8401
64.0167 1.8529
64.0333 1.8651
64.0500 1.8769
64.0667 1.8882
64.0833 1.8989
64.1000 1.9091
64.1167 1.9188
64.1333 1.9279
64.1500 1.9365
64.1667 1.9446
64.1833 1.9521
64.2000 1.9591
64.2167 1.9655
64.2333 1.9714
64.2500 1.9767
64.2667 1.9815
64.2833 1.9858
64.3000 1.9895
64.3167 1.9926
64.3333 1.9952
64.3500 1.9972
64.3667 1.9987
64.3833 1.9996
64.4000 2.0000
64.4167 1.9998
64.4333 1.9991
64.4500 1.9978
64.4667 1.9959
64.4833 1.9935
64.5000 1.9905
64.5167 1.9870
64.5333 1.9829
64.5500 1.9783
64.5667 1.9732
64.5833 1.9674
64.6000 1.9612
64.6167 1.9544
64.6333 1.9470
64.6500 1.9391
64.6667 1.9307
64.6833 1.9217
64.7000 1.9122
64.7167 1.9022
64.7333 1.8916
64.7500 1.8806
64.7667 1.8689
64.7833 1.8568
64.8000 1.8442
64.8167 1.8310
64.8333 1.8174
64.8500 1.8032
64.8667 1.7885
64.8833 1.7734
64.9000 1.7577
64.9167 1.7416
64.9333 1.7249
64.9500 1.7078
64.9667 1.6902
64.9833 1.6722
65.0000 1.6537
65.0167 1.6347
65.0333 1.6152
65.0500 1.5954
65.0667 1.5750
65.0833 1.5543
65.1000 1.5331
65.1167 1.5115
65.1333 1.4894
65.1500 1.4670
65.1667 1.4441
65.1833 1.4209
65.2000 1.3972
65.2167 1.3732
65.2333 1.3487
65.2500 1.3239
65.2667 1.2988
65.2833 1.2732
65.3000 1.2474
65.3167 1.2211
65.3333 1.1946
65.3500 1.1677
65.3667 1.1404
65.3833 1.1129
65.4000 1.0851
65.4167 1.0569
65.4333 1.0285
65.4500 0.9997
65.4667 0.9707
65.4833 0.9415
65.5000 0.9119
65.5167 0.8821
65.5333 0.8521
65.5500 0.8218
65.5667 0.7913
65.5833 0.7606
65.6000 0.7297
65.6167 0.6985
65.6333 0.6672
65.6500 0.6357
65.6667 0.6040
65.6833 0.5721
65.7000 0.5401
65.7167 0.5079
65.7333 0.4756
65.7500 0.4432
65.7667 0.4106
65.7833 0.3779
65.8000 0.3452
65.8167 0.3123
65.8333 0.2793
65.8500 0.2463
65.8667 0.2132
65.8833 0.1800
65.9000 0.1468
65.9167 0.1135
65.9333 0.0802
65.9500 0.0469
65.9667 0.0136
65.9833 0.0099
66.0000 0.0266
66.0167 0.0432
66.0333 0.0599
66.0500 0.0765
66.0667 0.0931
66.0833 0.1097
66.1000 0.1262
66.1167 0.1427
66.1333 0.1592
66.1500 0.1756
66.1667 0.1920
66.1833 0.2083
66.2000 0.2246
66.2167 0.2408
66.2333 0.2570
66.2500 0.2730
66.2667 0.2890
66.2833 0.3050
66.3000 0.3208
66.3167 0.3365
66.3333 0.3522
66.3500 0.3677
66.3667 0.3832
66.3833 0.3985
66.4000 0.4137
66.4167 0.4289
66.4333 0.4438
66.4500 0.4587
66.4667 0.4735
66.4833 0.4881
66.5000 0.5026
66.5167 0.5169
66.5333 0.5311
66.5500 0.5451
66.5667 0.5590
66.5833 0.5728
66.6000 0.5864
66.6167 0.5998
66.6333 0.6130
66.6500 0.6261
66.6667 0.6390
66.6833 0.6517
66.7000 0.6643
66.7167 0.6767
66.7333 0.6888
66.7500 0.7008
66.7667 0.7126
66.7833 0.7242
66.8000 0.7356
66.8167 0.7468
66.8333 0.7578
66.8500 0.7685
66.8667 0.7791
66.8833 0.7894
66.9000 0.7996
66.9167 0.8095
66.9333 0.8191
66.9500 0.8286
66.9667 0.8378
66.9833 0.8468
67.0000 0.8555
67.0167 0.8640
67.0333 0.8723
67.0500 0.8803
67.0667 0.8881
67.0833 0.8956
67.1000 0.9029
67.1167 0.9100
67.1333 0.9168
67.1500 0.9233
67.1667 0.9296
67.1833 0.9356
67.2000 0.9413
67.2167 0.9468
67.2333 0.9521
67.2500 0.9570
67.2667 0.9617
67.2833 0.9662
67.3000 0.9703
67.3167 0.9742
67.3333 0.9778
67.3500 0.9812
67.3667 0.9843
67.3833 0.9871
67.4000 0.9896
67.4167 0.9919
67.4333 0.9939
67.4500 0.9956
67.4667 0.9970
67.4833 0.9981
67.5000 0.9990
67.5167 0.9996
67.5333 0.9999
67.5500 1.0000
67.5667 0.9997
67.5833 0.9992
67.6000 0.9984
67.6167 0.9974
67.6333 0.9960
67.6500 0.9944
67.6667 0.9925
67.6833 0.9903
67.7000 0.9879
67.7167 0.9852
67.7333 0.9822
67.7500 0.9789
67.7667 0.9754
67.7833 0.9716
67.8000 0.9675
67.8167 0.9631
67.8333 0.9585
67.8500 0.9536
67.8667 0.9485
67.8833 0.9431
67.9000 0.9374
67.9167 0.9314
67.9333 0.9253
67.9500 0.9188
67.9667 0.9121
67.9833 0.9051
68.0000 0.8979
68.0167 0.8905
68.0333 0.8828
68.0500 0.8748
68.0667 0.8666
68.0833 0.8582
68.1000 0.8495
68.1167 0.8406
68.1333 0.8314
68.1500 0.8221
68.1667 0.8125
68.1833 0.8026
68.2000 0.7926
68.2167 0.7823
68.2333 0.7718
68.2500 0.7611
68.2667 0.7502
68.2833 0.7391
68.3000 0.7278
68.3167 0.7162
68.3333 0.7045
68.3500 0.6926
68.3667 0.6804
68.3833 0.6681
68.4000 0.6556
68.4167 0.6430
68.4333 0.6301
68.4500 0.6171
68.4667 0.6039
68.4833 0.5905
68.5000 0.5770
68.5167 0.5633
68.5333 0.5494
68.5500 0.5354
68.5667 0.5213
68.5833 0.5070
68.6000 0.4926
68.6167 0.4780
68.6333 0.4633
68.6500 0.4485
68.6667 0.4335
68.6833 0.4184
68.7000 0.4032
68.7167 0.3879
68.7333 0.3725
68.7500 0.3570
68.7667 0.3414
68.7833 0.3257
68.8000 0.3099
68.8167 0.2940
68.8333 0.2780
68.8500 0.2619
68.8667 0.2458
68.8833 0.2296
68.9000 0.2134
68.9167 0.1971
68.9333 0.1807
68.9500 0.1643
68.9667 0.1478
68.9833 0.1313
69.0000 0.1148
69.0167 0.0982
69.0333 0.0816
69.0500 0.0650
69.0667 0.0484
69.0833 0.0317
69.1000 0.0150
69.1167 0.0033
69.1333 0.0366
69.1500 0.0699
69.1667 0.1032
69.1833 0.1365
69.2000 0.1697
69.2167 0.2029
69.2333 0.2360
69.2500 0.2691
69.2667 0.3021
69.2833 0.3350
69.3000 0.3678
69.3167 0.4005
69.3333 0.4331
69.3500 0.4656
69.3667 0.4980
69.3833 0.5302
69.4000 0.5622
69.4167 0.5942
69.4333 0.6259
69.4500 0.6575
69.4667 0.6889
69.4833 0.7201
69.5000 0.7510
69.5167 0.7818
69.5333 0.8124
69.5500 0.8428
69.5667 0.8729
69.5833 0.9027
69.6000 0.9323
69.6167 0.9617
69.6333 0.9908
69.6500 1.0196
69.6667 1.0481
69.6833 1.0764
69.7000 1.1043
69.7167 1.1320
69.7333 1.1593
69.7500 1.1863
69.7667 1.2130
69.7833 1.2393
69.8000 1.2653
69.8167 1.2909
69.8333 1.3162
69.8500 1.3411
69.8667 1.3657
69.8833 1.3898
69.9000 1.4136
69.9167 1.4370
69.9333 1.4600
69.9500 1.4825
69.9667 1.5047
69.9833 1.5265
70.0000 1.5478
70.0167 1.5687
70.0333 1.5891
70.0500 1.6092
70.0667 1.6287
70.0833 1.6478
70.1000 1.6665
70.1167 1.6847
70.1333 1.7024
70.1500 1.7197
70.1667 1.7365
70.1833 1.7528
70.2000 1.7686
70.2167 1.7839
70.2333 1.7987
70.2500 1.8130
70.2667 1.8269
70.2833 1.8402
70.3000 1.8530
70.3167 1.8653
70.3333 1.8770
70.3500 1.8883
70.3667 1.8990
70.3833 1.9092
70.4000 1.9189
70.4167 1.9280
70.4333 1.9366
70.4500 1.9446
70.4667 1.9522
70.4833 1.9591
70.5000 1.9656
70.5167 1.9715
70.5333 1.9768
70.5500 1.9816
70.5667 1.9858
70.5833 1.9895
70.6000 1.9926
70.6167 1.9952
70.6333 1.9972
70.6500 1.9987
70.6667 1.9996
70.6833 2.0000
70.7000 1.9998
70.7167 1.9990
70.7333 1.9977
70.7500 1.9959
70.7667 1.9935
70.7833 1.9905
70.8000 1.9870
70.8167 1.9829
70.8333 1.9783
70.8500 1.9731
70.8667 1.9674
70.8833 1.9611
70.9000 1.9543
70.9167 1.9470
70.9333 1.9391
70.9500 1.9306
70.9667 1.9217
70.9833 1.9121
71.0000 1.9021
71.0167 1.8915
71.0333 1.8805
71.0500 1.8688
71.0667 1.8567
71.0833 1.8441
71.1000 1.8309
71.1167 1.8172
71.1333 1.8031
71.1500 1.7884
71.1667 1.7732
71.1833 1.7576
71.2000 1.7414
71.2167 1.7248
71.2333 1.7077
71.2500 1.6901
71.2667 1.6720
71.2833 1.6535
71.3000 1.6345
71.3167 1.6151
71.3333 1.5952
71.3500 1.5749
71.3667 1.5541
71.3833 1.5329
71.4000 1.5113
71.4167 1.4892
71.4333 1.4668
71.4500 1.4439
71.4667 1.4207
71.4833 1.3970
71.5000 1.3730
71.5167 1.3485
71.5333 1.3237
71.5500 1.2986
71.5667 1.2730
71.5833 1.2471
71.6000 1.2209
71.6167 1.1943
71.6333 1.1674
71.6500 1.1402
71.6667 1.1127
71.6833 1.0848
71.7000 1.0567
71.7167 1.0282
71.7333 0.9995
71.7500 0.9705
71.7667 0.9412
71.7833 0.9116
71.8000 0.8819
71.8167 0.8518
71.8333 0.8215
71.8500 0.7910
71.8667 0.7603
71.8833 0.7294
71.9000 0.6982
71.9167 0.6669
71.9333 0.6354
71.9500 0.6037
71.9667 0.5718
71.9833 0.5398
72.0000 0.5076
72.0167 0.4753
72.0333 0.4429
72.0500 0.4103
72.0667 0.3776
72.0833 0.3449
72.1000 0.3120
72.1167 0.2790
72.1333 0.2460
72.1500 0.2129
72.1667 0.1797
72.1833 0.1465
72.2000 0.1132
72.2167 0.0799
72.2333 0.0466
72.2500 0.0133
72.2667 0.0100
72.2833 0.0267
72.3000 0.0434
72.3167 0.0600
72.3333 0.0766
72.3500 0.0932
72.3667 0.1098
72.3833 0.1264
72.4000 0.1429
72.4167 0.1594
72.4333 0.1758
72.4500 0.1922
72.4667 0.2085
72.4833 0.2248
72.5000 0.2410
72.5167 0.2571
72.5333 0.2732
72.5500 0.2892
72.5667 0.3051
72.5833 0.3209
72.6000 0.3367
72.6167 0.3523
72.6333 0.3679
72.6500 0.3833
72.6667 0.3986
72.6833 0.4139
72.7000 0.4290
72.7167 0.4440
72.7333 0.4589
72.7500 0.4736
72.7667 0.4882
72.7833 0.5027
72.8000 0.5170
72.8167 0.5312
72.8333 0.5453
72.8500 0.5592
72.8667 0.5729
72.8833 0.5865
72.9000 0.5999
72.9167 0.6131
72.9333 0.6262
72.9500 0.6391
72.9667 0.6519
72.9833 0.6644
73.0000 0.6768
73.0167 0.6889
73.0333 0.7009
73.0500 0.7127
73.0667 0.7243
73.0833 0.7357
73.1000 0.7469
73.1167 0.7579
73.1333 0.7686
73.1500 0.7792
73.1667 0.7895
73.1833 0.7996
73.2000 0.8095
73.2167 0.8192
73.2333 0.8287
73.2500 0.8379
73.2667 0.8469
73.2833 0.8556
73.3000 0.8641
73.3167 0.8724
73.3333 0.8804
73.3500 0.8882
73.3667 0.8957
73.3833 0.9030
73.4000 0.9100
73.4167 0.9168
73.4333 0.9233
73.4500 0.9296
73.4667 0.9356
73.4833 0.9414
73.5000 0.9469
73.5167 0.9521
73.5333 0.9571
73.5500 0.9618
73.5667 0.9662
73.5833 0.9704
73.6000 0.9742
73.6167 0.9779
73.6333 0.9812
73.6500 0.9843
73.6667 0.9871
73.6833 0.9896
73.7000 0.9919
73.7167 0.9939
73.7333 0.9956
73.7500 0.9970
73.7667 0.9982
73.7833 0.9990
73.8000 0.9996
73.8167 0.9999
73.8333 1.0000
73.8500 0.9997
73.8667 0.9992
73.8833 0.9984
73.9000 0.9974
73.9167 0.9960
73.9333 0.9944
73.9500 0.9925
73.9667 0.9903
73.9833 0.9879
74.0000 0.9851
74.0167 0.9821
74.0333 0.9789
74.0500 0.9753
74.0667 0.9715
74.0833 0.9674
74.1000 0.9631
74.1167 0.9585
74.1333 0.9536
74.1500 0.9484
74.1667 0.9430
74.1833 0.9373
74.2000 0.9314
74.2167 0.9252
74.2333 0.9187
74.2500 0.9120
74.2667 0.9051
74.2833 0.8979
74.3000 0.8904
74.3167 0.8827
74.3333 0.8747
74.3500 0.8665
74.3667 0.8581
74.3833 0.8494
74.4000 0.8405
74.4167 0.8314
74.4333 0.8220
74.4500 0.8124
74.4667 0.8025
74.4833 0.7925
74.5000 0.7822
74.5167 0.7717
74.5333 0.7610
74.5500 0.7501
74.5667 0.7390
74.5833 0.7277
74.6000 0.7161
74.6167 0.7044
74.6333 0.6925
74.6500 0.6803
74.6667 0.6680
74.6833 0.6555
74.7000 0.6429
74.7167 0.6300
74.7333 0.6170
74.7500 0.6038
74.7667 0.5904
74.7833 0.5769
74.8000 0.5632
74.8167 0.5493
74.8333 0.5353
74.8500 0.5212
74.8667 0.5069
74.8833 0.4924
74.9000 0.4779
74.9167 0.4632
74.9333 0.4483
74.9500 0.4334
74.9667 0.4183
74.9833 0.4031
75.0000 0.3878
75.0167 0.3724
75.0333 0.3568
75.0500 0.3412
75.0667 0.3255
75.0833 0.3097
75.1000 0.2938
75.1167 0.2779
75.1333 0.2618
75.1500 0.2457
75.1667 0.2295
75.1833 0.2132
75.2000 0.1969
75.2167 0.1806
75.2333 0.1641
75.2500 0.1477
75.2667 0.1312
75.2833 0.1146
75.3000 0.0981
75.3167 0.0815
75.3333 0.0648
75.3500 0.0482
75.3667 0.0316
75.3833 0.0149
75.4000 0.0036
75.4167 0.0369
75.4333 0.0702
75.4500 0.1035
75.4667 0.1368
75.4833 0.1700
75.5000 0.2032
75.5167 0.2363
75.5333 0.2694
75.5500 0.3024
75.5667 0.3353
75.5833 0.3681
75.6000 0.4008
75.6167 0.4334
75.6333 0.4659
75.6500 0.4982
75.6667 0.5305
75.6833 0.5625
75.7000 0.5944
75.7167 0.6262
75.7333 0.6577
75.7500 0.6891
75.7667 0.7203
75.7833 0.7513
75.8000 0.7821
75.8167 0.8127
75.8333 0.8430
75.8500 0.8731
75.8667 0.9030
75.8833 0.9326
75.9000 0.9620
75.9167 0.9911
75.9333 1.0199
75.9500 1.0484
75.9667 1.0766
75.9833 1.1046
76.0000 1.1322
76.0167 1.1595
76.0333 1.1865
76.0500 1.2132
76.0667 1.2395
76.0833 1.2655
76.1000 1.2912
76.1167 1.3164
76.1333 1.3413
76.1500 1.3659
76.1667 1.3900
76.1833 1.4138
76.2000 1.4372
76.2167 1.4602
76.2333 1.4827
76.2500 1.5049
76.2667 1.5266
76.2833 1.5480
76.3000 1.5689
76.3167 1.5893
76.3333 1.6093
76.3500 1.6289
76.3667 1.6480
76.3833 1.6667
76.4000 1.6849
76.4167 1.7026
76.4333 1.7198
76.4500 1.7366
76.4667 1.7529
76.4833 1.7687
76.5000 1.7840
76.5167 1.7988
76.5333 1.8132
76.5500 1.8270
76.5667 1.8403
76.5833 1.8531
76.6000 1.8654
76.6167 1.8771
76.6333 1.8884
76.6500 1.8991
76.6667 1.9093
76.6833 1.9189
76.7000 1.9281
76.7167 1.9367
76.7333 1.9447
76.7500 1.9522
76.7667 1.9592
76.7833 1.9656
76.8000 1.9715
76.8167 1.9768
76.8333 1.9816
76.8500 1.9859
76.8667 1.9895
76.8833 1.9927
76.9000 1.9952
76.9167 1.9973
76.9333 1.9987
76.9500 1.9996
76.9667 2.0000
76.9833 1.9998
77.0000 1.9990
77.0167 1.9977
77.0333 1.9959
77.0500 1.9934
77.0667 1.9905
77.0833 1.9869
77.1000 1.9829
77.1167 1.9782
77.1333 1.9731
77.1500 1.9673
77.1667 1.9611
77.1833 1.9542
77.2000 1.9469
77.2167 1.9390
77.2333 1.9305
77.2500 1.9216
77.2667 1.9121
77.2833 1.9020
77.3000 1.8914
77.3167 1.8804
77.3333 1.8687
77.3500 1.8566
77.3667 1.8439
77.3833 1.8308
77.4000 1.8171
77.4167 1.8029
77.4333 1.7883
77.4500 1.7731
77.4667 1.7574
77.4833 1.7413
77.5000 1.7246
77.5167 1.7075
77.5333 1.6899
77.5500 1.6719
77.5667 1.6533
77.5833 1.6343
77.6000 1.6149
77.6167 1.5950
77.6333 1.5747
77.6500 1.5539
77.6667 1.5327
77.6833 1.5111
77.7000 1.4890
77.7167 1.4666
77.7333 1.4437
77.7500 1.4204
77.7667 1.3968
77.7833 1.3727
77.8000 1.3483
77.8167 1.3235
77.8333 1.2983
77.8500 1.2728
77.8667 1.2469
77.8833 1.2207
77.9000 1.1941
77.9167 1.1672
77.9333 1.1400
77.9500 1.1124
77.9667 1.0846
77.9833 1.0564
78.0000 1.0280
78.0167 0.9992
78.0333 0.9702
78.0500 0.9409
78.0667 0.9114
78.0833 0.8816
78.1000 0.8515
78.1167 0.8213
78.1333 0.7908
78.1500 0.7600
78.1667 0.7291
78.1833 0.6980
78.2000 0.6666
78.2167 0.6351
78.2333 0.6034
78.2500 0.5716
78.2667 0.5395
78.2833 0.5074
78.3000 0.4750
78.3167 0.4426
78.3333 0.4100
78.3500 0.3774
78.3667 0.3446
78.3833 0.3117
78.4000 0.2787
78.4167 0.2457
78.4333 0.2126
78.4500 0.1794
78.4667 0.1462
78.4833 0.1129
78.5000 0.0796
78.5167 0.0463
78.5333 0.0130
78.5500 0.0102
78.5667 0.0268
78.5833 0.0435
78.6000 0.0601
78.6167 0.0768
78.6333 0.0934
78.6500 0.1100
78.6667 0.1265
78.6833 0.1430
78.7000 0.1595
78.7167 0.1759
78.7333 0.1923
78.7500 0.2086
78.7667 0.2249
78.7833 0.2411
78.8000 0.2573
78.8167 0.2733
78.8333 0.2893
78.8500 0.3052
78.8667 0.3211
78.8833 0.3368
78.9000 0.3524
78.9167 0.3680
78.9333 0.3834
78.9500 0.3988
78.9667 0.4140
78.9833 0.4291
79.0000 0.4441
79.0167 0.4590
79.0333 0.4737
79.0500 0.4883
79.0667 0.5028
79.0833 0.5171
79.1000 0.5313
79.1167 0.5454
79.1333 0.5593
79.1500 0.5730
79.1667 0.5866
79.1833 0.6000
79.2000 0.6133
79.2167 0.6263
79.2333 0.6392
79.2500 0.6520
79.2667 0.6645
79.2833 0.6769
79.3000 0.6891
79.3167 0.7010
79.3333 0.7128
79.3500 0.7244
79.3667 0.7358
79.3833 0.7470
79.4000 0.7580
79.4167 0.7687
79.4333 0.7793
79.4500 0.7896
79.4667 0.7997
79.4833 0.8096
79.5000 0.8193
79.5167 0.8287
79.5333 0.8380
79.5500 0.8469
79.5667 0.8557
79.5833 0.8642
79.6000 0.8724
79.6167 0.8805
79.6333 0.8882
79.6500 0.8958
79.6667 0.9031
79.6833 0.9101
79.7000 0.9169
79.7167 0.9234
79.7333 0.9297
79.7500 0.9357
79.7667 0.9414
79.7833 0.9469
79.8000 0.9521
79.8167 0.9571
79.8333 0.9618
79.8500 0.9662
79.8667 0.9704
79.8833 0.9743
79.9000 0.9779
79.9167 0.9813
79.9333 0.9843
79.9500 0.9871
79.9667 0.9897
79.9833 0.9919
80.0000 0.9939
80.0167 0.9956
80.0333 0.9970
80.0500 0.9982
80.0667 0.9990
80.0833 0.9996
80.1000 0.9999
80.1167 1.0000
80.1333 0.9997
80.1500 0.9992
80.1667 0.9984
80.1833 0.9974
80.2000 0.9960
80.2167 0.9944
80.2333 0.9925
80.2500 0.9903
80.2667 0.9878
80.2833 0.9851
80.3000 0.9821
80.3167 0.9788
80.3333 0.9753
80.3500 0.9715
80.3667 0.9674
80.3833 0.9630
80.4000 0.9584
80.4167 0.9535
80.4333 0.9484
80.4500 0.9430
80.4667 0.9373
80.4833 0.9313
80.5000 0.9251
80.5167 0.9187
80.5333 0.9120
80.5500 0.9050
80.5667 0.8978
80.5833 0.8903
80.6000 0.8826
80.6167 0.8747
80.6333 0.8665
80.6500 0.8580
80.6667 0.8493
80.6833 0.8404
80.7000 0.8313
80.7167 0.8219
80.7333 0.8123
80.7500 0.8025
80.7667 0.7924
80.7833 0.7821
80.8000 0.7716
80.8167 0.7609
80.8333 0.7500
80.8500 0.7389
80.8667 0.7275
80.8833 0.7160
80.9000 0.7043
80.9167 0.6924
80.9333 0.6802
80.9500 0.6679
80.9667 0.6554
80.9833 0.6427
81.0000 0.6299
81.0167 0.6169
81.0333 0.6037
81.0500 0.5903
81.0667 0.5767
81.0833 0.5631
81.1000 0.5492
81.1167 0.5352
81.1333 0.5210
81.1500 0.5067
81.1667 0.4923
81.1833 0.4777
81.2000 0.4630
81.2167 0.4482
81.2333 0.4332
81.2500 0.4182
81.2667 0.4030
81.2833 0.3876
81.3000 0.3722
81.3167 0.3567
81.3333 0.3411
81.3500 0.3254
81.3667 0.3096
81.3833 0.2937
81.4000 0.2777
81.4167 0.2617
81.4333 0.2455
81.4500 0.2293
81.4667 0.2131
81.4833 0.1968
81.5000 0.1804
81.5167 0.1640
81.5333 0.1475
81.5500 0.1310
81.5667 0.1145
81.5833 0.0979
81.6000 0.0813
81.6167 0.0647
81.6333 0.0481
81.6500 0.0314
81.6667 0.0147
81.6833 0.0038
81.7000 0.0372
81.7167 0.0705
81.7333 0.1038
81.7500 0.1371
81.7667 0.1703
81.7833 0.2035
81.8000 0.2366
81.8167 0.2697
81.8333 0.3027
81.8500 0.3356
81.8667 0.3684
81.8833 0.4011
81.9000 0.4337
81.9167 0.4662
81.9333 0.4985
81.9500 0.5307
81.9667 0.5628
81.9833 0.5947
82.0000 0.6265
82.0167 0.6580
82.0333 0.6894
82.0500 0.7206
82.0667 0.7516
82.0833 0.7824
82.1000 0.8129
82.1167 0.8433
82.1333 0.8734
82.1500 0.9033
82.1667 0.9329
82.1833 0.9622
82.2000 0.9913
82.2167 1.0201
82.2333 1.0487
82.2500 1.0769
82.2667 1.1048
82.2833 1.1325
82.3000 1.1598
82.3167 1.1868
82.3333 1.2134
82.3500 1.2398
82.3667 1.2657
82.3833 1.2914
82.4000 1.3166
82.4167 1.3416
82.4333 1.3661
82.4500 1.3902
82.4667 1.4140
82.4833 1.4374
82.5000 1.4604
82.5167 1.4829
82.5333 1.5051
82.5500 1.5268
82.5667 1.5482
82.5833 1.5690
82.6000 1.5895
82.6167 1.6095
82.6333 1.6291
82.6500 1.6482
82.6667 1.6668
82.6833 1.6850
82.7000 1.7027
82.7167 1.7200
82.7333 1.7368
82.7500 1.7530
82.7667 1.7688
82.7833 1.7842
82.8000 1.7990
82.8167 1.8133
82.8333 1.8271
82.8500 1.8404
82.8667 1.8532
82.8833 1.8655
82.9000 1.8772
82.9167 1.8885
82.9333 1.8992
82.9500 1.9094
82.9667 1.9190
82.9833 1.9281
83.0000 1.9367
83.0167 1.9448
83.0333 1.9523
83.0500 1.9593
83.0667 1.9657
83.0833 1.9715
83.1000 1.9769
83.1167 1.9817
83.1333 1.9859
83.1500 1.9896
83.1667 1.9927
83.1833 1.9953
83.2000 1.9973
83.2167 1.9987
83.2333 1.9996
83.2500 2.0000
83.2667 1.9998
83.2833 1.9990
83.3000 1.9977
83.3167 1.9958
83.3333 1.9934
83.3500 1.9904
83.3667 1.9869
83.3833 1.9828
83.4000 1.9782
83.4167 1.9730
83.4333 1.9673
83.4500 1.9610
83.4667 1.9542
83.4833 1.9468
83.5000 1.9389
83.5167 1.9305
83.5333 1.9215
83.5500 1.9120
83.5667 1.9019
83.5833 1.8914
83.6000 1.8803
83.6167 1.8686
83.6333 1.8565
83.6500 1.8438
83.6667 1.8307
83.6833 1.8170
83.7000 1.8028
83.7167 1.7881
83.7333 1.7729
83.7500 1.7573
83.7667 1.7411
83.7833 1.7245
83.8000 1.7074
83.8167 1.6898
83.8333 1.6717
83.8500 1.6532
83.8667 1.6342
83.8833 1.6147
83.9000 1.5948
83.9167 1.5745
83.9333 1.5537
83.9500 1.5325
83.9667 1.5109
83.9833 1.4888
84.0000 1.4664
84.0167 1.4435
84.0333 1.4202
84.0500 1.3966
84.0667 1.3725
84.0833 1.3481
84.1000 1.3233
84.1167 1.2981
84.1333 1.2726
84.1500 1.2467
84.1667 1.2204
84.1833 1.1939
84.2000 1.1670
84.2167 1.1397
84.2333 1.1122
84.2500 1.0843
84.2667 1.0562
84.2833 1.0277
84.3000 0.9990
84.3167 0.9700
84.3333 0.9407
84.3500 0.9111
84.3667 0.8813
84.3833 0.8513
84.4000 0.8210
84.4167 0.7905
84.4333 0.7598
84.4500 0.7288
84.4667 0.6977
84.4833 0.6663
84.5000 0.6348
84.5167 0.6031
84.5333 0.5713
84.5500 0.5392
84.5667 0.5071
84.5833 0.4748
84.6000 0.4423
84.6167 0.4097
84.6333 0.3771
84.6500 0.3443
84.6667 0.3114
84.6833 0.2784
84.7000 0.2454
84.7167 0.2123
84.7333 0.1791
84.7500 0.1459
84.7667 0.1126
84.7833 0.0793
84.8000 0.0460
84.8167 0.0127
84.8333 0.0103
84.8500 0.0270
84.8667 0.0437
84.8833 0.0603
84.9000 0.0769
84.9167 0.0935
84.9333 0.1101
84.9500 0.1267
84.9667 0.1432
84.9833 0.1596
85.0000 0.1761
85.0167 0.1925
85.0333 0.2088
85.0500 0.2251
85.0667 0.2413
85.0833 0.2574
85.1000 0.2735
85.1167 0.2895
85.1333 0.3054
85.1500 0.3212
85.1667 0.3369
85.1833 0.3526
85.2000 0.3681
85.2167 0.3836
85.2333 0.3989
85.2500 0.4141
85.2667 0.4293
85.2833 0.4442
85.3000 0.4591
85.3167 0.4739
85.3333 0.4885
85.3500 0.5029
85.3667 0.5173
85.3833 0.5315
85.4000 0.5455
85.4167 0.5594
85.4333 0.5731
85.4500 0.5867
85.4667 0.6001
85.4833 0.6134
85.5000 0.6265
85.5167 0.6394
85.5333 0.6521
85.5500 0.6646
85.5667 0.6770
85.5833 0.6892
85.6000 0.7011
85.6167 0.7129
85.6333 0.7245
85.6500 0.7359
85.6667 0.7471
85.6833 0.7581
85.7000 0.7688
85.7167 0.7794
85.7333 0.7897
85.7500 0.7998
85.7667 0.8097
85.7833 0.8194
85.8000 0.8288
85.8167 0.8380
85.8333 0.8470
85.8500 0.8557
85.8667 0.8643
85.8833 0.8725
85.9000 0.8805
85.9167 0.8883
85.9333 0.8958
85.9500 0.9031
85.9667 0.9102
85.9833 0.9169
86.0000 0.9235
86.0167 0.9297
86.0333 0.9357
86.0500 0.9415
86.0667 0.9470
86.0833 0.9522
86.1000 0.9572
86.1167 0.9618
86.1333 0.9663
86.1500 0.9704
86.1667 0.9743
86.1833 0.9779
86.2000 0.9813
86.2167 0.9844
86.2333 0.9872
86.2500 0.9897
86.2667 0.9919
86.2833 0.9939
86.3000 0.9956
86.3167 0.9970
86.3333 0.9982
86.3500 0.9990
86.3667 0.9996
86.3833 0.9999
86.4000 1.0000
86.4167 0.9997
86.4333 0.9992
86.4500 0.9984
86.4667 0.9973
86.4833 0.9960
86.5000 0.9944
86.5167 0.9925
86.5333 0.9903
86.5500 0.9878
86.5667 0.9851
86.5833 0.9821
86.6000 0.9788
86.6167 0.9753
86.6333 0.9714
86.6500 0.9674
86.6667 0.9630
86.6833 0.9584
86.7000 0.9535
86.7167 0.9483
86.7333 0.9429
86.7500 0.9372
86.7667 0.9313
86.7833 0.9251
86.8000 0.9186
86.8167 0.9119
86.8333 0.9049
86.8500 0.8977
86.8667 0.8903
86.8833 0.8826
86.9000 0.8746
86.9167 0.8664
86.9333 0.8579
86.9500 0.8493
86.9667 0.8403
86.9833 0.8312
87.0000 0.8218
87.0167 0.8122
87.0333 0.8024
87.0500 0.7923
87.0667 0.7820
87.0833 0.7715
87.1000 0.7608
87.1167 0.7499
87.1333 0.7388
87.1500 0.7274
87.1667 0.7159
87.1833 0.7042
87.2000 0.6922
87.2167 0.6801
87.2333 0.6678
87.2500 0.6553
87.2667 0.6426
87.2833 0.6298
87.3000 0.6167
87.3167 0.6035
87.3333 0.5902
87.3500 0.5766
87.3667 0.5629
87.3833 0.5491
87.4000 0.5351
87.4167 0.5209
87.4333 0.5066
87.4500 0.4922
87.4667 0.4776
87.4833 0.4629
87.5000 0.4481
87.5167 0.4331
87.5333 0.4180
87.5500 0.4028
87.5667 0.3875
87.5833 0.3721
87.6000 0.3566
87.6167 0.3410
87.6333 0.3252
87.6500 0.3094
87.6667 0.2935
87.6833 0.2776
87.7000 0.2615
87.7167 0.2454
87.7333 0.2292
87.7500 0.2130
87.7667 0.1966
87.7833 0.1803
87.8000 0.1639
87.8167 0.1474
87.8333 0.1309
87.8500 0.1143
87.8667 0.0978
87.8833 0.0812
87.9000 0.0645
87.9167 0.0479
87.9333 0.0313
87.9500 0.0146
87.9667 0.0041
87.9833 0.0375
88.0000 0.0708
88.0167 0.1041
88.0333 0.1374
88.0500 0.1706
88.0667 0.2038
88.0833 0.2369
88.1000 0.2700
88.1167 0.3030
88.1333 0.3359
88.1500 0.3687
88.1667 0.4014
88.1833 0.4340
88.2000 0.4665
88.2167 0.4988
88.2333 0.5310
88.2500 0.5631
88.2667 0.5950
88.2833 0.6267
88.3000 0.6583
88.3167 0.6897
88.3333 0.7209
88.3500 0.7519
88.3667 0.7827
88.3833 0.8132
88.4000 0.8436
88.4167 0.8737
88.4333 0.9035
88.4500 0.9331
88.4667 0.9625
88.4833 0.9916
88.5000 1.0204
88.5167 1.0489
88.5333 1.0771
88.5500 1.1051
88.5667 1.1327
88.5833 1.1600
88.6000 1.1870
88.6167 1.2137
88.6333 1.2400
88.6500 1.2660
88.6667 1.2916
88.6833 1.3169
88.7000 1.3418
88.7167 1.3663
88.7333 1.3905
88.7500 1.4142
88.7667 1.4376
88.7833 1.4606
88.8000 1.4831
88.8167 1.5053
88.8333 1.5270
88.8500 1.5483
88.8667 1.5692
88.8833 1.5897
88.9000 1.6097
88.9167 1.6292
88.9333 1.6483
88.9500 1.6670
88.9667 1.6852
88.9833 1.7029
89.0000 1.7201
89.0167 1.7369
89.0333 1.7532
89.0500 1.7690
89.0667 1.7843
89.0833 1.7991
89.1000 1.8134
89.1167 1.8272
89.1333 1.8405
89.1500 1.8533
89.1667 1.8656
89.1833 1.8773
89.2000 1.8886
89.2167 1.8993
89.2333 1.9095
89.2500 1.9191
89.2667 1.9282
89.2833 1.9368
89.3000 1.9448
89.3167 1.9524
89.3333 1.9593
89.3500 1.9657
89.3667 1.9716
89.3833 1.9769
89.4000 1.9817
89.4167 1.9859
89.4333 1.9896
89.4500 1.9927
89.4667 1.9953
89.4833 1.9973
89.5000 1.9987
89.5167 1.9996
89.5333 2.0000
89.5500 1.9998
89.5667 1.9990
89.5833 1.9977
89.6000 1.9958
89.6167 1.9934
89.6333 1.9904
89.6500 1.9869
89.6667 1.9828
89.6833 1.9782
89.7000 1.9730
89.7167 1.9672
89.7333 1.9609
89.7500 1.9541
89.7667 1.9467
89.7833 1.9388
89.8000 1.9304
89.8167 1.9214
89.8333 1.9119
89.8500 1.9018
89.8667 1.8913
89.8833 1.8802
89.9000 1.8685
89.9167 1.8564
89.9333 1.8437
89.9500 1.8305
89.9667 1.8169
89.9833 1.8027
90.0000 1.7880
90.0167 1.7728
90.0333 1.7571
90.0500 1.7410
90.0667 1.7243
90.0833 1.7072
90.1000 1.6896
90.1167 1.6715
90.1333 1.6530
90.1500 1.6340
90.1667 1.6146
90.1833 1.5947
90.2000 1.5743
90.2167 1.5535
90.2333 1.5323
90.2500 1.5107
90.2667 1.4886
90.2833 1.4662
90.3000 1.4433
90.3167 1.4200
90.3333 1.3964
90.3500 1.3723
90.3667 1.3479
90.3833 1.3231
90.4000 1.2979
90.4167 1.2723
90.4333 1.2464
90.4500 1.2202
90.4667 1.1936
90.4833 1.1667
90.5000 1.1395
90.5167 1.1119
90.5333 1.0841
90.5500 1.0559
90.5667 1.0274
90.5833 0.9987
90.6000 0.9697
90.6167 0.9404
90.6333 0.9109
90.6500 0.8811
90.6667 0.8510
90.6833 0.8207
90.7000 0.7902
90.7167 0.7595
90.7333 0.7285
90.7500 0.6974
90.7667 0.6661
90.7833 0.6345
90.8000 0.6029
90.8167 0.5710
90.8333 0.5390
90.8500 0.5068
90.8667 0.4745
90.8833 0.4420
90.9000 0.4095
90.9167 0.3768
90.9333 0.3440
90.9500 0.3111
90.9667 0.2781
90.9833 0.2451
91.0000 0.2120
91.0167 0.1788
91.0333 0.1456
91.0500 0.1123
91.0667 0.0790
91.0833 0.0457
91.1000 0.0124
91.1167 0.0105
91.1333 0.0271
91.1500 0.0438
91.1667 0.0604
91.1833 0.0771
91.2000 0.0937
91.2167 0.1103
91.2333 0.1268
91.2500 0.1433
91.2667 0.1598
91.2833 0.1762
91.3000 0.1926
91.3167 0.2089
91.3333 0.2252
91.3500 0.2414
91.3667 0.2575
91.3833 0.2736
91.4000 0.2896
91.4167 0.3055
91.4333 0.3213
91.4500 0.3371
91.4667 0.3527
91.4833 0.3683
91.5000 0.3837
91.5167 0.3990
91.5333 0.4143
91.5500 0.4294
91.5667 0.4444
91.5833 0.4592
91.6000 0.4740
91.6167 0.4886
91.6333 0.5031
91.6500 0.5174
91.6667 0.5316
91.6833 0.5456
91.7000 0.5595
91.7167 0.5733
91.7333 0.5868
91.7500 0.6002
91.7667 0.6135
91.7833 0.6266
91.8000 0.6395
91.8167 0.6522
91.8333 0.6647
91.8500 0.6771
91.8667 0.6893
91.8833 0.7012
91.9000 0.7130
91.9167 0.7246
91.9333 0.7360
91.9500 0.7472
91.9667 0.7582
91.9833 0.7689
92.0000 0.7795
92.0167 0.7898
92.0333 0.7999
92.0500 0.8098
92.0667 0.8195
92.0833 0.8289
92.1000 0.8381
92.1167 0.8471
92.1333 0.8558
92.1500 0.8643
92.1667 0.8726
92.1833 0.8806
92.2000 0.8884
92.2167 0.8959
92.2333 0.9032
92.2500 0.9102
92.2667 0.9170
92.2833 0.9235
92.3000 0.9298
92.3167 0.9358
92.3333 0.9415
92.3500 0.9470
92.3667 0.9522
92.3833 0.9572
92.4000 0.9619
92.4167 0.9663
92.4333 0.9705
92.4500 0.9743
92.4667 0.9780
92.4833 0.9813
92.5000 0.9844
92.5167 0.9872
92.5333 0.9897
92.5500 0.9919
92.5667 0.9939
92.5833 0.9956
92.6000 0.9970
92.6167 0.9982
92.6333 0.9990
92.6500 0.9996
92.6667 0.9999
92.6833 1.0000
92.7000 0.9997
92.7167 0.9992
92.7333 0.9984
92.7500 0.9973
92.7667 0.9960
92.7833 0.9944
92.8000 0.9924
92.8167 0.9903
92.8333 0.9878
92.8500 0.9851
92.8667 0.9821
92.8833 0.9788
92.9000 0.9752
92.9167 0.9714
92.9333 0.9673
92.9500 0.9630
92.9667 0.9583
92.9833 0.9534
93.0000 0.9483
93.0167 0.9429
93.0333 0.9372
93.0500 0.9312
93.0667 0.9250
93.0833 0.9186
93.1000 0.9119
93.1167 0.9049
93.1333 0.8977
93.1500 0.8902
93.1667 0.8825
93.1833 0.8745
93.2000 0.8663
93.2167 0.8579
93.2333 0.8492
93.2500 0.8403
93.2667 0.8311
93.2833 0.8217
93.3000 0.8121
93.3167 0.8023
93.3333 0.7922
93.3500 0.7819
93.3667 0.7714
93.3833 0.7607
93.4000 0.7498
93.4167 0.7387
93.4333 0.7273
93.4500 0.7158
93.4667 0.7041
93.4833 0.6921
93.5000 0.6800
93.5167 0.6677
93.5333 0.6552
93.5500 0.6425
93.5667 0.6297
93.5833 0.6166
93.6000 0.6034
93.6167 0.5900
93.6333 0.5765
93.6500 0.5628
93.6667 0.5490
93.6833 0.5349
93.7000 0.5208
93.7167 0.5065
93.7333 0.4921
93.7500 0.4775
93.7667 0.4628
93.7833 0.4479
93.8000 0.4330
93.8167 0.4179
93.8333 0.4027
93.8500 0.3874
93.8667 0.3720
93.8833 0.3564
93.9000 0.3408
93.9167 0.3251
93.9333 0.3093
93.9500 0.2934
93.9667 0.2774
93.9833 0.2614
94.0000 0.2453
94.0167 0.2291
94.0333 0.2128
94.0500 0.1965
94.0667 0.1801
94.0833 0.1637
94.1000 0.1472
94.1167 0.1307
94.1333 0.1142
94.1500 0.0976
94.1667 0.0810
94.1833 0.0644
94.2000 0.0478
94.2167 0.0311
94.2333 0.0144
94.2500 0.0044
94.2667 0.0378
94.2833 0.0711
94.3000 0.1044
94.3167 0.1377
94.3333 0.1709
94.3500 0.2041
94.3667 0.2372
94.3833 0.2703
94.4000 0.3033
94.4167 0.3362
94.4333 0.3690
94.4500 0.4017
94.4667 0.4343
94.4833 0.4668
94.5000 0.4991
94.5167 0.5313
94.5333 0.5634
94.5500 0.5953
94.5667 0.6270
94.5833 0.6586
94.6000 0.6900
94.6167 0.7212
94.6333 0.7521
94.6500 0.7829
94.6667 0.8135
94.6833 0.8438
94.7000 0.8739
94.7167 0.9038
94.7333 0.9334
94.7500 0.9627
94.7667 0.9918
94.7833 1.0206
94.8000 1.0492
94.8167 1.0774
94.8333 1.1053
94.8500 1.1329
94.8667 1.1603
94.8833 1.1872
94.9000 1.2139
94.9167 1.2402
94.9333 1.2662
94.9500 1.2918
94.9667 1.3171
94.9833 1.3420
95.0000 1.3665
95.0167 1.3907
95.0333 1.4144
95.0500 1.4378
95.0667 1.4608
95.0833 1.4833
95.1000 1.5055
95.1167 1.5272
95.1333 1.5485
95.1500 1.5694
95.1667 1.5899
95.1833 1.6099
95.2000 1.6294
95.2167 1.6485
95.2333 1.6672
95.2500 1.6853
95.2667 1.7031
95.2833 1.7203
95.3000 1.7371
95.3167 1.7533
95.3333 1.7691
95.3500 1.7844
95.3667 1.7992
95.3833 1.8135
95.4000 1.8273
95.4167 1.8406
95.4333 1.8534
95.4500 1.8657
95.4667 1.8774
95.4833 1.8887
95.5000 1.8994
95.5167 1.9095
95.5333 1.9192
95.5500 1.9283
95.5667 1.9369
95.5833 1.9449
95.6000 1.9524
95.6167 1.9594
95.6333 1.9658
95.6500 1.9716
95.6667 1.9770
95.6833 1.9817
95.7000 1.9860
95.7167 1.9896
95.7333 1.9927
95.7500 1.9953
95.7667 1.9973
95.7833 1.9988
95.8000 1.9997
95.8167 2.0000
95.8333 1.9998
95.8500 1.9990
95.8667 1.9977
95.8833 1.9958
95.9000 1.9934
95.9167 1.9904
95.9333 1.9868
95.9500 1.9828
95.9667 1.9781
95.9833 1.9729
96.0000 1.9672
96.0167 1.9609
96.0333 1.9541
96.0500 1.9467
96.0667 1.9388
96.0833 1.9303
96.1000 1.9213
96.1167 1.9118
96.1333 1.9017
96.1500 1.8912
96.1667 1.8801
96.1833 1.8684
96.2000 1.8563
96.2167 1.8436
96.2333 1.8304
96.2500 1.8167
96.2667 1.8026
96.2833 1.7879
96.3000 1.7727
96.3167 1.7570
96.3333 1.7408
96.3500 1.7242
96.3667 1.7070
96.3833 1.6894
96.4000 1.6714
96.4167 1.6528
96.4333 1.6338
96.4500 1.6144
96.4667 1.5945
96.4833 1.5741
96.5000 1.5534
96.5167 1.5321
96.5333 1.5105
96.5500 1.4884
96.5667 1.4660
96.5833 1.4431
96.6000 1.4198
96.6167 1.3962
96.6333 1.3721
96.6500 1.3476
96.6667 1.3228
96.6833 1.2976
96.7000 1.2721
96.7167 1.2462
96.7333 1.2200
96.7500 1.1934
96.7667 1.1665
96.7833 1.1392
96.8000 1.1117
96.8167 1.0838
96.8333 1.0557
96.8500 1.0272
96.8667 0.9985
96.8833 0.9694
96.9000 0.9401
96.9167 0.9106
96.9333 0.8808
96.9500 0.8507
96.9667 0.8205
96.9833 0.7899
97.0000 0.7592
97.0167 0.7283
97.0333 0.6971
97.0500 0.6658
97.0667 0.6343
97.0833 0.6026
97.1000 0.5707
97.1167 0.5387
97.1333 0.5065
97.1500 0.4742
97.1667 0.4417
97.1833 0.4092
97.2000 0.3765
97.2167 0.3437
97.2333 0.3108
97.2500 0.2778
97.2667 0.2448
97.2833 0.2117
97.3000 0.1785
97.3167 0.1453
97.3333 0.1120
97.3500 0.0787
97.3667 0.0454
97.3833 0.0121
97.4000 0.0106
97.4167 0.0273
97.4333 0.0439
97.4500 0.0606
97.4667 0.0772
97.4833 0.0938
97.5000 0.1104
97.5167 0.1270
97.5333 0.1435
97.5500 0.1599
97.5667 0.1764
97.5833 0.1927
97.6000 0.2091
97.6167 0.2253
97.6333 0.2415
97.6500 0.2577
97.6667 0.2738
97.6833 0.2897
97.7000 0.3057
97.7167 0.3215
97.7333 0.3372
97.7500 0.3529
97.7667 0.3684
97.7833 0.3838
97.8000 0.3992
97.8167 0.4144
97.8333 0.4295
97.8500 0.4445
97.8667 0.4594
97.8833 0.4741
97.9000 0.4887
97.9167 0.5032
97.9333 0.5175
97.9500 0.5317
97.9667 0.5458
97.9833 0.5596
98.0000 0.5734
98.0167 0.5870
98.0333 0.6004
98.0500 0.6136
98.0667 0.6267
98.0833 0.6396
98.1000 0.6523
98.1167 0.6649
98.1333 0.6772
98.1500 0.6894
98.1667 0.7014
98.1833 0.7131
98.2000 0.7247
98.2167 0.7361
98.2333 0.7473
98.2500 0.7583
98.2667 0.7690
98.2833 0.7796
98.3000 0.7899
98.3167 0.8000
98.3333 0.8099
98.3500 0.8196
98.3667 0.8290
98.3833 0.8382
98.4000 0.8472
98.4167 0.8559
98.4333 0.8644
98.4500 0.8727
98.4667 0.8807
98.4833 0.8885
98.5000 0.8960
98.5167 0.9033
98.5333 0.9103
98.5500 0.9171
98.5667 0.9236
98.5833 0.9298
98.6000 0.9358
98.6167 0.9416
98.6333 0.9471
98.6500 0.9523
98.6667 0.9572
98.6833 0.9619
98.7000 0.9663
98.7167 0.9705
98.7333 0.9744
98.7500 0.9780
98.7667 0.9813
98.7833 0.9844
98.8000 0.9872
98.8167 0.9897
98.8333 0.9920
98.8500 0.9939
98.8667 0.9956
98.8833 0.9970
98.9000 0.9982
98.9167 0.9991
98.9333 0.9996
98.9500 0.9999
98.9667 1.0000
98.9833 0.9997
99.0000 0.9992
99.0167 0.9984
99.0333 0.9973
99.0500 0.9960
99.0667 0.9943
99.0833 0.9924
99.1000 0.9902
99.1167 0.9878
99.1333 0.9850
99.1500 0.9820
99.1667 0.9788
99.1833 0.9752
99.2000 0.9714
99.2167 0.9673
99.2333 0.9629
99.2500 0.9583
99.2667 0.9534
99.2833 0.9482
99.3000 0.9428
99.3167 0.9371
99.3333 0.9312
99.3500 0.9250
99.3667 0.9185
99.3833 0.9118
99.4000 0.9048
99.4167 0.8976
99.4333 0.8901
99.4500 0.8824
99.4667 0.8744
99.4833 0.8662
99.5000 0.8578
99.5167 0.8491
99.5333 0.8402
99.5500 0.8310
99.5667 0.8216
99.5833 0.8120
99.6000 0.8022
99.6167 0.7921
99.6333 0.7819
99.6500 0.7714
99.6667 0.7606
99.6833 0.7497
99.7000 0.7386
99.7167 0.7272
99.7333 0.7157
99.7500 0.7040
99.7667 0.6920
99.7833 0.6799
99.8000 0.6676
99.8167 0.6551
99.8333 0.6424
99.8500 0.6295
99.8667 0.6165
99.8833 0.6033
99.9000 0.5899
99.9167 0.5764
99.9333 0.5627
99.9500 0.5488
99.9667 0.5348
99.9833 0.5207
100.0000 0.5064
